accX_mad,gyroX_kurtosis,accY_mean,gyroX_iqr,ci_sma,distance_std,ci_std,distance_mean,gyroZ_skewness,accX_max,gyroY_skewness,accY_min,accX_min,accZ_iqr,distance_sma,gyroX_sma,accZ_sma,distance_iqr,gyroX_mad,gyroX_max,proximity_min,gyroX_min,accX_mean,accX_iqr,gyroZ_maxInds,gyroZ_mad,proximity_kurtosis,accZ_min,gyroZ_kurtosis,accY_skewness,distance_skewness,distance_kurtosis,ci_max,ci_min,proximity_sma,proximity_std,accZ_max,accZ_std,gyroX_std,gyroY_std,proximity_maxInds,proximity_max,ci_iqr,accZ_mad,accY_kurtosis,accZ_skewness,gyroZ_min,gyroZ_max,accY_iqr,accX_sma,ci_mean,gyroX_maxInds,accY_std,gyroY_mean,ci_maxInds,gyroZ_sma,gyroY_kurtosis,gyroX_mean,gyroY_maxInds,accY_mad,accY_max,gyroZ_iqr,gyroY_sma,ci_kurtosis,distance_maxInds,accZ_maxInds,gyroZ_mean,gyroX_skewness,distance_mad,proximity_mad,distance_max,proximity_iqr,distance_min,accZ_kurtosis,accX_maxInds,ci_mad,accZ_mean,accX_skewness,gyroY_iqr,ci_skewness,accY_maxInds,accX_std,gyroY_min,proximity_skewness,accY_sma,gyroY_max,proximity_mean,gyroZ_std,accX_kurtosis,gyroY_mad,activity
1610.0,0.99,428.97,26.25,0.09,0.29,0.13,0.39,-0.2,2293.0,-0.25,-1131.0,-6422.0,1335.5,0.08,2.74,1636.62,0.64,12.5,54.0,0.85,-63.0,-1071.07,3328.25,4.0,9.0,-1.55,-3187.0,0.95,-0.17,-0.49,-1.56,0.72,0.23,0.2,0.06,8636.0,1609.09,19.75,19.22,4.0,1.0,0.14,701.0,0.13,1.08,-43.0,32.0,717.75,-852.25,0.42,6.0,620.15,3.13,6.0,-0.56,-0.07,3.44,4.0,354.5,2006.0,17.25,2.49,-0.48,5.0,12.0,-0.71,0.13,0.13,0.03,0.68,0.14,0.0,3.77,4.0,0.07,2056.84,-0.28,24.25,0.66,3.0,1946.72,-49.0,0.49,341.33,43.0,0.91,13.14,-0.45,12.5,Very High
1769.0,4.11,478.14,28.5,0.05,0.31,0.22,0.36,-0.59,7531.0,-0.97,-1476.0,-6422.0,2187.5,0.08,0.96,1327.03,0.63,14.0,136.0,0.0,-63.0,-336.07,3740.0,1.0,12.0,-1.88,-7714.0,1.0,3.5,-0.26,-1.85,0.66,0.0,0.11,0.43,8636.0,2723.27,26.31,35.28,4.0,0.92,0.38,1075.0,16.44,-0.5,-66.0,50.0,922.5,-262.78,0.23,13.0,1280.78,-12.97,4.0,-5.02,0.32,1.22,2.0,426.0,7809.0,23.0,-10.14,-1.19,4.0,13.0,-6.41,0.69,0.13,0.03,0.68,0.87,0.0,2.32,1.0,0.27,1697.15,0.41,44.0,0.24,9.0,2733.65,-117.0,-0.34,373.87,42.0,0.51,18.54,-0.05,19.0,High
624.0,13.12,543.47,15.5,0.08,1.24,0.28,1.0,-0.25,7531.0,-0.81,-1476.0,-4974.0,1352.0,0.25,-3.51,1141.67,2.14,8.0,136.0,0.0,-59.0,762.24,1618.0,1.0,9.0,-1.29,-7714.0,0.99,3.27,0.82,-1.08,0.66,0.0,0.08,0.35,8103.0,2341.57,21.14,33.34,6.0,0.9,0.57,628.0,14.93,-1.11,-66.0,50.0,1056.5,571.68,0.3,10.0,1295.0,-17.86,6.0,-6.22,0.5,-4.67,1.0,493.0,7809.0,17.5,-13.4,-1.9,4.0,13.0,-8.3,1.9,0.55,0.32,3.05,0.66,0.0,4.65,7.0,0.22,1522.22,0.69,37.5,-0.07,2.0,1925.94,-117.0,0.53,407.6,48.0,0.33,18.52,2.0,15.0,Very High
252.0,0.29,731.98,12.0,0.06,1.29,0.28,0.95,0.86,1739.0,0.05,-1761.0,-2251.0,461.5,0.24,-0.46,1520.94,2.21,6.0,22.0,0.0,-26.0,-50.93,515.0,4.0,4.0,0.02,540.0,0.59,-0.17,0.81,-1.17,0.6,0.0,0.05,0.29,3817.0,522.86,8.27,17.13,3.0,0.9,0.57,230.0,1.97,-0.4,-21.0,23.0,679.5,-38.0,0.23,1.0,725.92,1.15,3.0,-0.92,0.21,-0.62,7.0,331.0,2676.0,7.0,0.86,-1.8,3.0,1.0,-1.23,-0.07,0.0,0.0,3.05,0.33,0.0,1.66,5.0,0.0,2038.27,-0.47,21.0,0.4,8.0,646.83,-44.0,1.1,546.2,48.0,0.21,9.48,2.16,10.0,Very High
227.0,0.76,818.1,5.5,0.0,0.32,0.05,0.04,0.59,1739.0,-0.12,-1761.0,-2251.0,295.0,0.01,1.12,1643.83,0.0,3.0,17.0,0.0,-9.0,-176.52,455.5,8.0,3.0,45.02,1141.0,1.49,-0.56,6.86,45.02,0.33,0.0,0.0,0.07,3817.0,359.65,4.87,10.64,3.0,0.51,0.0,150.0,4.22,0.57,-13.0,14.0,496.5,-131.72,0.01,1.0,658.24,0.9,3.0,-2.31,2.61,1.5,4.0,243.0,2676.0,5.0,0.68,45.02,3.0,7.0,-3.1,0.58,0.0,0.0,2.23,0.0,0.0,4.51,4.0,0.0,2202.96,-0.33,12.0,6.86,3.0,602.99,-43.0,6.86,610.46,32.0,0.01,4.41,2.78,5.0,Very High
166.5,-0.19,867.09,6.0,0.05,0.8,0.27,0.38,0.02,701.0,0.72,-138.0,-839.0,289.0,0.09,0.56,1739.01,0.57,3.0,13.0,0.0,-11.0,-142.12,332.5,2.0,3.0,-1.76,1648.0,-0.35,-0.29,3.61,13.64,0.79,0.0,0.08,0.43,2946.0,265.89,5.15,6.22,3.0,1.0,0.4,145.0,-0.1,0.31,-15.0,10.0,461.0,-108.07,0.21,3.0,358.81,-1.01,3.0,-2.99,0.82,0.73,1.0,240.5,1653.0,7.0,-0.77,-0.72,4.0,12.0,-3.94,-0.15,0.0,0.0,4.23,0.85,0.0,0.07,3.0,0.0,2286.92,0.33,6.75,0.82,3.0,313.95,-13.0,0.44,659.35,19.0,0.35,5.69,0.3,3.0,Medium
176.0,0.8,999.67,6.5,0.09,0.73,0.17,0.88,-0.07,701.0,0.29,-138.0,-574.0,316.5,0.19,3.85,1791.21,0.28,3.0,25.0,0.0,-11.0,-39.59,348.0,2.0,2.0,8.01,1619.0,0.25,-0.72,3.32,12.08,0.79,0.0,0.17,0.2,2946.0,277.11,7.12,6.15,5.0,1.0,0.18,160.0,1.03,0.12,-15.0,10.0,399.0,-31.12,0.41,3.0,354.24,0.39,4.0,-2.86,0.5,4.9,2.0,184.0,1741.0,3.5,0.3,0.56,6.0,15.0,-3.64,0.28,0.14,0.03,4.23,0.06,0.0,0.06,3.0,0.09,2278.62,0.61,8.0,0.57,6.0,272.22,-13.0,-2.94,785.83,19.0,0.78,5.34,-0.12,3.0,Medium
333.0,1.74,766.61,14.0,0.07,0.16,0.1,0.9,-1.97,3707.0,-1.56,-4896.0,-2164.0,868.0,0.18,2.12,1731.15,0.21,7.0,74.0,0.75,-52.0,382.78,985.0,1.0,2.0,-0.34,-5860.0,4.1,-1.69,-0.68,-0.24,0.6,0.15,0.16,0.04,10906.0,2761.57,20.53,21.76,6.0,0.88,0.13,392.0,3.96,0.01,-66.0,35.0,492.5,304.15,0.36,6.0,1618.63,-10.63,15.0,-6.23,1.34,2.67,1.0,224.0,4321.0,3.0,-8.45,0.09,6.0,12.0,-7.84,-0.72,0.14,0.03,1.11,0.04,0.52,2.75,1.0,0.07,2178.66,1.32,12.5,0.47,9.0,1041.35,-80.0,0.63,609.15,23.0,0.8,15.79,1.78,5.0,Medium
1128.0,1.98,1158.11,27.0,0.09,0.37,0.18,0.59,0.08,3948.0,0.38,-4896.0,-6727.0,3275.5,0.12,2.59,1338.3,0.51,15.0,123.0,0.0,-52.0,-576.61,2865.0,1.0,12.0,18.21,-7797.0,2.63,-1.13,-0.26,-1.02,0.78,0.0,0.18,0.16,10906.0,3774.7,28.03,51.79,3.0,1.0,0.19,1785.0,1.95,-0.14,-66.0,127.0,1595.5,-455.71,0.43,4.0,1936.76,15.05,6.0,4.15,-0.34,3.27,1.0,820.0,5607.0,25.0,11.89,-0.0,3.0,12.0,5.25,0.66,0.3,0.07,1.09,0.11,0.0,0.14,1.0,0.06,1693.35,-0.6,59.5,0.43,1.0,2427.06,-107.0,-3.79,915.28,150.0,0.84,27.02,-0.1,27.0,Very High
800.0,8.37,1249.15,18.0,0.09,0.41,0.17,0.54,1.94,3948.0,0.89,-898.0,-6727.0,861.5,0.12,3.44,1233.75,0.8,9.0,123.0,0.0,-37.0,-1668.48,1774.5,1.0,8.0,16.27,-7797.0,6.92,1.16,0.02,-1.26,0.78,0.0,0.18,0.16,8926.0,2572.08,20.82,41.68,6.0,1.0,0.1,419.0,2.28,-0.96,-19.0,127.0,1510.5,-1311.59,0.4,3.0,1104.69,25.04,3.0,6.63,0.53,4.38,1.0,658.0,5607.0,25.0,19.68,0.56,4.0,14.0,8.44,2.24,0.39,0.08,1.23,0.17,0.0,3.5,3.0,0.05,1569.47,-0.41,49.5,0.94,1.0,1825.26,-107.0,-3.51,981.95,150.0,0.85,20.21,1.29,13.0,Very High
203.0,2.01,609.64,12.0,0.07,0.5,0.03,1.2,0.01,-422.0,-0.01,-226.0,-2911.0,347.0,0.27,1.73,1465.19,0.66,6.0,39.0,0.61,-18.0,-1227.88,426.0,5.0,2.0,0.21,-361.0,2.88,-0.08,-0.98,0.21,0.37,0.27,0.17,0.11,2580.0,465.06,9.91,9.27,3.0,1.0,0.04,176.0,1.06,-2.07,-19.0,13.0,233.5,-949.99,0.31,4.0,301.73,-1.35,5.0,-3.22,1.88,2.23,2.0,114.0,1406.0,4.5,-1.05,-0.65,3.0,3.0,-4.16,0.93,0.33,0.07,1.73,0.15,0.0,5.96,3.0,0.02,1893.78,-1.82,10.0,0.62,4.0,485.34,-32.0,0.98,471.67,30.0,0.73,4.71,3.22,6.0,High
518.0,-0.19,476.18,18.0,0.07,0.23,0.05,1.42,-1.98,3726.0,-1.91,-3528.0,-4382.0,863.0,0.32,1.59,1538.16,0.35,8.0,39.0,0.61,-30.0,-581.29,1540.0,5.0,4.0,-1.12,-796.0,4.42,-2.36,-0.21,-1.14,0.43,0.26,0.15,0.05,5013.0,1173.44,14.47,27.83,5.0,0.77,0.05,390.0,6.97,-0.1,-64.0,20.0,456.0,-449.74,0.32,3.0,931.42,-5.67,13.0,-4.65,3.9,2.06,3.0,230.0,2132.0,8.0,-4.39,-0.08,5.0,4.0,-6.01,0.22,0.18,0.04,1.73,0.07,1.03,0.5,1.0,0.02,1988.1,0.38,22.0,0.96,6.0,1473.92,-118.0,0.2,368.41,31.0,0.68,16.08,0.72,12.0,Medium
1306.5,3.82,546.58,22.75,0.08,0.25,0.05,1.46,-1.55,3726.0,-1.19,-3528.0,-6566.0,1702.5,0.33,3.54,1443.63,0.42,11.5,90.0,0.6,-30.0,-834.18,2669.75,3.0,9.0,-1.2,-4122.0,2.66,-1.8,-0.37,-1.2,0.45,0.26,0.15,0.05,7150.0,1720.99,17.49,33.81,5.0,0.77,0.07,963.5,3.95,-0.31,-64.0,21.0,970.25,-647.82,0.37,9.0,1052.95,3.22,7.0,-2.2,2.24,4.56,4.0,506.5,2215.0,18.0,2.5,-0.67,5.0,10.0,-2.83,1.04,0.19,0.04,1.79,0.09,1.03,1.65,5.0,0.04,1858.92,-0.26,29.75,-0.35,7.0,2069.46,-118.0,0.34,424.47,75.0,0.68,18.38,0.06,15.0,High
880.0,2.46,364.56,19.0,0.09,0.33,0.06,1.36,0.2,3542.0,0.47,-6190.0,-8167.0,1922.5,0.31,7.34,1098.54,0.51,10.0,90.0,0.6,-33.0,-1850.2,1880.0,2.0,9.0,-0.63,-6807.0,-0.47,-0.27,-0.48,-0.68,0.55,0.3,0.16,0.07,7150.0,2397.22,18.0,31.33,3.0,0.87,0.07,978.0,3.88,-0.49,-20.0,33.0,1199.5,-1423.98,0.38,4.0,2103.8,17.93,6.0,1.7,-0.02,9.54,8.0,605.0,7622.0,16.0,13.8,1.04,3.0,7.0,2.2,0.88,0.27,0.05,1.79,0.11,0.61,1.32,6.0,0.03,1427.35,-0.43,40.0,1.15,6.0,2165.02,-44.0,0.5,280.58,95.0,0.7,11.56,0.79,19.0,Very High
1787.0,0.12,-6.98,37.0,0.09,0.21,0.1,0.94,-0.03,5221.0,-0.09,-6190.0,-9088.0,4983.5,0.21,5.09,847.47,0.37,19.0,95.0,0.7,-62.0,-1497.06,3621.5,1.0,12.0,-1.22,-8036.0,-0.14,0.0,0.28,-1.26,0.62,0.23,0.18,0.05,10572.0,3889.56,30.04,44.7,3.0,0.87,0.14,2547.0,0.21,-0.29,-55.0,37.0,3150.0,-1158.25,0.4,2.0,2738.95,4.39,3.0,-3.58,-0.24,6.58,2.0,1515.0,7622.0,23.0,3.39,-0.72,3.0,8.0,-4.63,0.09,0.12,0.03,1.34,0.08,0.61,-0.14,3.0,0.06,1095.37,-0.19,60.5,0.54,7.0,2971.89,-112.0,-0.29,-5.4,95.0,0.79,18.48,-0.09,30.0,Very High
1475.0,0.46,-104.19,34.75,0.09,0.08,0.09,0.76,-0.03,5221.0,-0.12,-5392.0,-9088.0,4422.0,0.17,0.12,953.96,0.08,17.0,95.0,0.8,-62.0,-813.51,2818.0,8.0,14.5,0.24,-8036.0,-0.4,-0.25,-0.69,0.17,0.62,0.23,0.19,0.02,10572.0,3661.07,30.03,39.15,4.0,0.87,0.1,2265.5,-0.31,-0.39,-55.0,42.0,2754.25,-628.42,0.4,3.0,2141.61,-2.38,6.0,-0.72,0.34,0.16,4.0,1416.0,4353.0,28.75,-1.84,0.27,3.0,6.0,-0.94,0.37,0.04,0.01,0.9,0.02,0.58,0.3,4.0,0.03,1234.92,-0.53,43.5,0.68,7.0,2776.25,-112.0,0.75,-80.49,90.0,0.83,20.91,0.33,20.5,Very High
1183.0,1.69,-85.99,21.0,0.07,0.32,0.18,0.49,-0.52,6043.0,0.89,-5065.0,-7532.0,2856.0,0.11,-2.66,1301.68,0.74,10.0,62.0,0.0,-51.0,-759.27,2261.5,1.0,7.0,-0.43,-6384.0,1.27,-0.51,-0.77,-1.22,0.74,0.0,0.15,0.37,10836.0,2825.38,17.21,28.11,3.0,1.0,0.11,1322.0,0.78,-0.14,-69.0,42.0,1780.5,-587.43,0.3,2.0,1631.79,-4.16,3.0,-2.7,1.24,-3.44,8.0,839.0,3373.0,14.5,-3.22,-0.14,3.0,6.0,-3.49,0.15,0.13,0.03,0.79,0.03,0.0,1.82,8.0,0.03,1682.44,-0.15,31.0,-0.59,8.0,2543.43,-62.0,-1.23,-66.53,81.0,0.66,20.4,0.83,16.0,Very High
1072.0,0.81,300.37,20.5,0.07,0.27,0.28,0.23,-1.21,6043.0,-0.08,-5065.0,-7532.0,2705.0,0.05,-2.23,1227.83,0.52,10.0,62.0,0.0,-53.0,-484.64,2192.0,3.0,9.0,-1.8,-6384.0,1.2,-0.77,0.42,-1.66,0.76,0.0,0.13,0.45,10836.0,2874.22,19.12,32.43,6.0,1.0,0.46,1420.0,1.7,-0.04,-69.0,13.0,1600.5,-374.96,0.31,13.0,1444.25,-10.9,6.0,-8.39,-0.0,-2.88,6.0,764.0,3373.0,21.5,-8.43,-1.43,7.0,8.0,-10.84,0.31,0.0,0.14,0.65,0.89,0.0,1.41,3.0,0.34,1586.99,-0.24,38.0,0.07,9.0,2588.16,-98.0,-0.4,232.39,62.0,0.55,16.81,0.59,18.0,Very High
941.0,0.08,393.84,22.0,0.08,0.5,0.22,0.58,0.85,6108.0,0.47,-2070.0,-4970.0,1549.0,0.13,2.48,1142.53,1.08,11.0,41.0,0.0,-53.0,-422.67,2120.5,2.0,11.0,0.66,-2799.0,1.35,-0.24,0.27,-1.32,0.76,0.0,0.16,0.33,6811.0,1774.73,19.5,43.58,5.0,1.0,0.17,810.0,-0.17,-0.05,-45.0,58.0,1184.0,-328.75,0.37,7.0,994.14,3.2,8.0,-1.5,0.68,3.18,2.0,627.0,2692.0,23.0,2.49,-0.5,3.0,9.0,-1.93,-0.44,0.51,0.09,1.4,0.19,0.0,0.33,5.0,0.08,1468.97,0.33,50.0,-0.13,2.0,1934.1,-98.0,-1.48,306.32,123.0,0.7,20.05,1.0,24.0,Very High
1365.0,6.7,-67.14,26.5,0.08,0.35,0.1,0.79,-0.09,6385.0,-0.4,-4039.0,-8693.0,1592.5,0.17,3.33,1208.9,0.56,11.0,140.0,0.69,-109.0,-1249.47,2727.5,4.0,10.0,-0.84,-7905.0,1.02,0.44,0.16,-0.89,0.56,0.21,0.18,0.08,8178.0,2900.01,28.53,53.95,6.0,1.0,0.16,773.0,0.54,-0.63,-68.0,58.0,2018.0,-976.98,0.39,7.0,1653.85,13.17,5.0,-0.63,0.96,4.26,2.0,1023.0,4885.0,23.0,10.3,-1.09,6.0,12.0,-0.81,-0.74,0.22,0.05,1.4,0.12,0.01,2.43,6.0,0.06,1546.07,0.38,52.0,0.22,2.0,2869.64,-187.0,-0.15,-52.49,125.0,0.82,23.16,0.83,28.0,Very High
1219.5,4.76,-437.33,32.75,0.09,0.25,0.18,0.56,-1.23,6385.0,-0.82,-8590.0,-8693.0,2378.75,0.12,1.96,1146.15,0.15,16.0,140.0,0.0,-109.0,-1687.68,2177.25,9.0,7.0,5.24,-7999.0,1.62,-0.18,-0.93,0.73,0.82,0.0,0.17,0.26,8178.0,3351.54,30.2,46.78,3.0,1.0,0.2,1206.0,2.17,-0.52,-68.0,30.0,1738.5,-1310.65,0.4,3.0,2400.78,6.72,15.0,-3.58,2.28,2.53,3.0,822.5,6129.0,15.75,5.22,0.5,8.0,13.0,-4.61,-0.59,0.07,0.02,1.05,0.04,0.0,1.09,9.0,0.1,1475.86,0.52,31.75,-0.34,8.0,2929.62,-187.0,-2.64,-339.63,125.0,0.78,18.45,0.66,14.5,Very High
1037.0,1.11,209.46,31.0,0.04,0.32,0.25,0.23,1.37,5634.0,-1.78,-8590.0,-6195.0,1497.5,0.05,0.58,1109.39,0.63,16.0,95.0,0.0,-78.0,-750.25,2682.5,8.0,9.0,-1.72,-8937.0,3.05,-0.49,0.67,-1.49,0.82,0.0,0.08,0.42,9791.0,3171.05,25.4,29.94,3.0,1.0,0.33,755.0,2.07,-0.29,-41.0,73.0,2482.0,-574.41,0.17,1.0,2781.09,-5.41,3.0,-2.87,4.43,0.76,2.0,939.0,8858.0,16.0,-4.15,-0.01,3.0,8.0,-3.75,0.14,0.0,0.0,0.77,0.85,0.0,1.74,1.0,0.0,1448.99,0.22,23.5,1.11,7.0,2337.86,-131.0,0.51,160.37,46.0,0.33,18.13,0.12,11.0,Very High
1572.0,4.57,455.96,17.0,0.03,0.39,0.16,0.25,1.78,5634.0,-2.02,-8076.0,-5851.0,1227.5,0.06,-2.47,1224.51,0.62,9.0,95.0,0.0,-78.0,-457.05,3149.5,3.0,8.0,-1.48,-8937.0,4.42,-0.03,1.04,-0.57,0.49,0.0,0.07,0.4,9791.0,2623.51,21.44,27.52,3.0,0.99,0.32,632.0,5.29,-0.41,-27.0,73.0,1642.5,-351.76,0.11,10.0,2007.41,-6.58,3.0,-2.2,6.4,-3.21,5.0,785.0,8858.0,16.0,-5.06,-0.95,3.0,8.0,-2.86,0.71,0.0,0.0,1.13,0.79,0.0,4.23,5.0,0.0,1591.03,0.21,21.0,0.9,7.0,2039.88,-131.0,0.7,350.92,46.0,0.29,16.6,-0.12,11.0,High
550.0,0.63,66.53,16.0,0.06,0.46,0.12,0.92,-0.69,1934.0,-0.21,-1188.0,-3426.0,756.0,0.2,0.57,1381.45,0.61,7.5,38.0,0.0,-23.0,-961.31,1525.0,4.0,5.0,2.63,147.0,0.72,0.36,-0.95,-0.3,0.49,0.0,0.15,0.26,4002.0,716.0,11.15,14.26,9.0,0.99,0.05,362.0,0.13,0.59,-27.0,14.0,639.0,-750.54,0.29,2.0,536.49,1.01,4.0,-2.06,0.47,0.73,5.0,333.0,1437.0,9.0,0.79,1.25,3.0,8.0,-2.64,0.71,0.15,0.03,1.53,0.08,0.0,0.77,6.0,0.02,1769.39,0.01,18.5,-1.52,6.0,1245.66,-37.0,-2.0,51.95,38.0,0.67,7.98,-0.42,9.5,High
,,,,,,,,,,,,,,,,,,,,,,,,,,,,,,,,,,,,,,,,,,,,,,,,,,,,,,,,,,,,,,,,,,,,,,,,,,,,,,,,,,,,,,,,,,
729.0,0.5,191.9,32.0,0.13,0.51,0.17,0.92,-0.65,9678.0,-1.23,-6315.0,-3805.0,2414.0,0.22,-3.98,1352.43,0.98,13.0,68.0,0.62,-79.0,460.68,1785.0,1.0,8.0,-1.35,-5610.0,-0.24,-0.74,0.35,-1.38,0.82,0.27,0.19,0.11,10739.0,3105.02,24.16,40.67,3.0,1.0,0.29,1260.0,0.39,0.18,-51.0,17.0,2594.0,355.66,0.56,8.0,2244.81,-18.5,3.0,-8.4,1.51,-5.16,1.0,976.0,5423.0,20.0,-14.28,-1.4,3.0,7.0,-10.88,-0.57,0.22,0.05,1.71,0.22,0.01,1.53,7.0,0.17,1751.81,1.17,37.0,-0.07,2.0,1969.18,-164.0,-0.35,148.15,63.0,0.79,14.35,5.56,16.0,Very High
444.0,1.82,623.74,20.5,0.12,0.71,0.31,0.49,-0.12,4822.0,0.21,-5868.0,-4884.0,2158.0,0.12,1.97,1493.55,0.59,10.0,87.0,0.0,-79.0,703.91,966.5,4.0,5.0,-1.19,-9611.0,0.8,0.55,3.53,13.17,0.82,0.0,0.15,0.41,10002.0,3479.69,24.78,30.24,4.0,1.0,0.6,1221.0,0.85,-0.47,-36.0,27.0,2223.0,536.14,0.5,5.0,2838.52,-1.14,4.0,-2.01,0.55,2.59,7.0,826.0,8717.0,10.0,-0.87,-0.98,16.0,5.0,-2.63,-0.25,0.15,0.04,3.76,0.85,0.0,1.99,7.0,0.1,1960.93,-0.98,30.5,-0.88,7.0,1389.64,-82.0,-0.86,475.08,74.0,0.63,11.96,2.8,13.0,Very High
1034.5,3.65,993.36,34.0,0.11,1.08,0.31,0.66,0.15,6660.0,-0.28,-5868.0,-4884.0,7999.0,0.15,3.07,956.89,0.54,17.5,158.0,0.0,-79.0,505.05,2221.75,5.0,11.5,-1.64,-9611.0,-0.44,0.14,2.25,3.6,0.78,0.0,0.13,0.42,11351.0,4998.93,33.25,39.32,3.0,1.0,0.73,3691.5,-0.29,-0.02,-36.0,44.0,4033.75,388.09,0.48,8.0,3213.14,-0.98,3.0,-0.98,-0.17,4.0,5.0,2021.0,8717.0,23.5,-0.75,-1.12,17.0,6.0,-1.27,0.99,0.26,0.07,3.93,0.89,0.0,-0.93,3.0,0.16,1245.27,-0.3,59.5,-0.77,3.0,1917.47,-130.0,-0.51,763.32,74.0,0.58,17.53,0.64,31.0,Very High
650.5,4.06,478.83,37.0,0.11,0.84,0.21,0.88,0.28,6660.0,-0.61,-6772.0,-4516.0,5649.75,0.19,-0.99,761.04,0.53,18.0,158.0,0.13,-129.0,555.04,1716.75,6.0,12.0,6.24,-7191.0,-0.23,-0.2,2.59,6.3,0.78,0.17,0.17,0.19,11351.0,4157.68,38.05,33.59,5.0,1.0,0.42,2759.0,0.41,0.15,-46.0,44.0,2630.25,435.68,0.49,6.0,2709.72,-5.05,4.0,-2.51,0.58,-1.26,7.0,1328.5,6881.0,23.75,-3.97,-1.54,5.0,6.0,-3.19,-0.1,0.26,0.06,3.93,0.12,0.0,-0.5,13.0,0.22,969.55,-0.17,48.0,-0.01,9.0,1650.61,-130.0,-2.58,375.85,63.0,0.81,17.8,1.75,23.5,Very High
634.0,2.7,737.69,42.0,0.1,0.3,0.2,0.69,-0.92,3321.0,-0.15,-6772.0,-4304.0,3727.5,0.15,2.5,1050.49,0.4,22.0,132.0,0.74,-129.0,106.47,1277.5,2.0,13.0,-0.03,-7197.0,0.92,0.07,-0.4,0.0,0.8,0.17,0.18,0.07,9021.0,3354.41,37.6,34.93,5.0,1.0,0.37,1937.0,0.45,-0.45,-68.0,37.0,2836.0,83.25,0.47,4.0,2672.2,7.63,4.0,-2.05,-0.51,3.2,1.0,1334.0,6881.0,27.0,5.96,-1.28,5.0,14.0,-2.62,-0.77,0.14,0.03,1.16,0.09,0.0,0.31,10.0,0.16,1343.48,-0.69,49.0,0.24,7.0,1562.55,-76.0,0.39,576.81,85.0,0.85,21.32,0.44,24.0,Very High
1561.0,3.11,1511.47,30.5,0.11,0.27,0.17,0.43,-1.17,2795.0,0.07,-2607.0,-4304.0,2949.5,0.09,4.34,1070.61,0.22,16.0,132.0,0.79,-38.0,-469.16,3269.0,2.0,10.0,-0.68,-7197.0,2.11,0.34,-0.65,-0.67,0.8,0.28,0.2,0.06,7391.0,2933.61,25.99,29.79,4.0,1.0,0.3,1558.0,-0.6,-0.72,-68.0,37.0,3307.5,-366.84,0.49,4.0,2106.05,13.48,4.0,-1.76,-0.68,5.55,1.0,1376.0,6475.0,20.0,10.54,-1.24,4.0,14.0,-2.25,1.17,0.08,0.02,0.95,0.05,0.0,0.83,4.0,0.12,1369.21,-0.21,47.0,0.51,6.0,1881.07,-58.0,0.66,1181.84,85.0,0.9,19.5,-1.13,23.0,Very High
1324.0,0.94,1361.96,19.0,0.07,0.25,0.06,0.18,-0.0,2795.0,0.36,-569.0,-3807.0,1968.0,0.04,1.21,1433.28,0.52,8.0,52.0,0.87,-24.0,-573.71,3082.0,6.0,7.0,-1.42,-2431.0,-0.73,0.76,0.71,-1.41,0.46,0.28,0.21,0.06,7118.0,1787.48,14.99,20.88,4.0,1.0,0.1,1070.0,-0.54,0.35,-25.0,17.0,2016.0,-446.22,0.32,7.0,1328.36,2.23,3.0,-1.97,-0.05,1.56,6.0,731.0,4790.0,15.0,1.74,-0.1,4.0,7.0,-2.53,0.9,0.0,0.0,0.58,0.12,0.0,0.2,6.0,0.0,1842.79,-0.16,18.5,1.15,6.0,1716.73,-45.0,-0.7,1059.3,59.0,0.96,10.24,-1.05,9.0,Very High
664.0,1.41,1124.35,15.5,0.07,0.31,0.05,0.3,0.68,2075.0,0.11,-323.0,-3807.0,1332.5,0.07,3.63,1288.2,0.61,8.0,52.0,0.84,-22.0,-506.71,1262.5,4.0,8.0,-1.78,-1557.0,0.48,0.5,0.25,-1.77,0.46,0.28,0.2,0.07,7118.0,1368.49,12.02,17.42,4.0,1.0,0.09,669.0,-0.24,0.66,-22.0,37.0,960.0,-396.2,0.32,7.0,674.79,1.85,5.0,-0.6,1.14,4.64,9.0,438.0,2962.0,15.5,1.45,-0.47,4.0,7.0,-0.77,0.73,0.12,0.03,0.74,0.14,0.0,2.07,8.0,0.0,1647.5,-0.39,12.5,0.89,6.0,1159.0,-45.0,-0.25,879.14,59.0,0.93,12.59,0.19,6.0,High
371.0,3.47,1272.86,18.0,0.07,0.16,0.06,0.71,1.09,3678.0,0.72,-2796.0,-7148.0,864.0,0.15,5.39,1179.48,0.13,9.0,60.0,0.78,-64.0,-914.65,684.5,3.0,5.0,3.04,-6334.0,2.28,0.56,-1.08,3.32,0.41,0.22,0.18,0.04,6147.0,1724.33,18.06,27.21,3.0,0.97,0.09,476.0,5.46,-0.94,-25.0,37.0,731.0,-719.01,0.32,6.0,1075.4,5.76,20.0,-2.71,1.92,6.86,4.0,290.0,5020.0,8.5,4.53,-1.15,3.0,11.0,-3.44,-0.22,0.07,0.02,1.01,0.03,0.12,5.94,1.0,0.05,1500.42,-1.31,17.0,-0.22,4.0,1748.07,-57.0,1.03,1000.59,95.0,0.84,11.81,3.98,9.0,High
749.0,1.51,759.83,38.0,0.05,0.56,0.19,0.51,-0.62,5017.0,-0.14,-4878.0,-7148.0,1407.5,0.12,2.84,956.08,0.77,18.0,136.0,0.0,-79.0,-224.33,1549.0,6.0,5.0,-1.86,-9012.0,1.67,-0.64,2.16,8.63,0.66,0.0,0.11,0.41,8581.0,2961.77,38.86,38.02,3.0,0.9,0.31,729.0,1.39,-0.72,-46.0,26.0,795.0,-171.76,0.21,3.0,1841.18,-4.72,3.0,-5.8,1.2,3.71,3.0,413.0,5020.0,13.0,-3.61,-0.66,3.0,11.0,-7.58,0.83,0.24,0.06,3.13,0.84,0.0,2.56,5.0,0.16,1248.76,-0.33,33.5,0.41,2.0,2390.61,-130.0,-0.33,581.74,95.0,0.49,12.2,1.16,16.0,Medium
246.0,3.59,589.93,23.0,0.02,0.47,0.18,0.12,-1.12,5017.0,-1.75,-4878.0,-3031.0,575.0,0.03,0.58,708.81,0.0,11.0,136.0,0.0,-79.0,398.12,565.5,6.0,3.0,4.74,-9012.0,2.96,-1.63,5.52,32.22,0.66,0.0,0.02,0.27,8581.0,2486.43,35.29,27.12,3.0,0.9,0.0,287.0,3.72,-0.66,-46.0,26.0,362.0,297.07,0.06,3.0,1478.34,-9.36,3.0,-4.09,4.93,0.78,1.0,175.0,3897.0,9.0,-6.98,4.99,3.0,10.0,-5.48,1.31,0.0,0.0,3.13,0.0,0.0,5.86,5.0,0.0,949.9,1.39,14.5,2.57,3.0,1498.69,-130.0,2.57,440.2,58.0,0.09,11.72,2.26,7.0,High
133.0,-0.79,981.69,13.0,0.0,0.0,0.0,0.0,0.92,641.0,-1.59,191.0,-818.0,366.0,0.0,-0.25,714.4,0.0,6.0,16.0,0.0,-20.0,-139.58,257.0,4.0,2.0,-3.0,-63.0,3.61,0.36,0.0,-3.0,0.0,0.0,0.0,0.0,1775.0,286.82,8.23,5.68,0.0,0.0,0.0,179.0,2.6,-0.65,-18.0,24.0,231.0,-103.11,0.0,2.0,220.26,1.49,0.0,-1.81,3.82,-0.33,3.0,107.0,1717.0,5.0,1.1,-3.0,0.0,2.0,-2.46,-0.27,0.0,0.0,0.0,0.0,0.0,1.48,8.0,0.0,967.11,0.28,6.0,0.0,8.0,244.76,-22.0,0.0,725.17,10.0,0.0,7.05,1.51,3.0,Very High
139.0,0.11,964.18,8.5,0.03,0.47,0.2,0.26,0.87,641.0,-0.97,191.0,-818.0,294.0,0.06,1.68,787.43,0.76,3.0,22.0,0.0,-16.0,-145.52,274.5,4.0,2.0,-0.88,-63.0,3.7,0.53,2.09,5.28,0.57,0.0,0.05,0.36,1775.0,260.65,7.97,6.19,3.0,0.83,0.3,137.0,2.57,-0.81,-18.0,24.0,237.5,-110.27,0.12,1.0,221.67,0.33,3.0,-1.73,1.22,2.21,2.0,97.0,1717.0,4.0,0.25,-0.31,3.0,9.0,-2.29,-0.04,0.0,0.0,2.3,0.65,0.0,3.28,7.0,0.0,1039.2,0.37,8.0,1.2,10.0,243.74,-22.0,1.04,730.59,10.0,0.22,7.0,1.75,4.0,Medium
140.0,2.54,995.1,5.0,0.07,0.44,0.19,0.72,-0.38,366.0,-0.05,634.0,-626.0,293.5,0.15,2.66,828.24,0.11,2.0,22.0,0.0,-7.0,-229.25,288.5,2.0,2.0,-0.0,711.0,0.38,0.47,0.34,3.18,0.57,0.0,0.13,0.33,1555.0,190.2,5.4,5.04,4.0,0.83,0.15,146.0,-0.2,0.26,-10.0,5.0,254.5,-181.18,0.34,2.0,172.79,-0.03,4.0,-1.87,-0.98,3.36,2.0,115.0,1474.0,3.5,-0.02,-0.35,3.0,2.0,-2.37,1.04,0.06,0.01,2.3,0.01,0.0,-0.47,1.0,0.08,1047.98,0.4,9.0,-1.07,9.0,211.24,-11.0,-1.39,786.45,9.0,0.64,2.92,-0.01,4.0,Low
147.5,0.6,884.9,6.75,0.08,0.04,0.06,0.91,0.61,375.0,-0.25,181.0,-626.0,381.75,0.18,-0.33,867.45,0.02,3.0,8.0,0.78,-17.0,-205.23,305.5,2.0,2.0,0.61,258.0,1.06,-0.06,-0.25,0.16,0.52,0.26,0.16,0.01,2005.0,335.42,4.77,4.0,3.0,0.82,0.06,223.5,0.11,0.2,-11.0,9.0,312.0,-163.74,0.39,2.0,240.82,-1.01,3.0,-2.87,-0.48,-0.41,2.0,159.5,1474.0,4.0,-0.81,-0.22,3.0,10.0,-3.6,-0.68,0.01,0.0,0.98,0.01,0.83,0.36,1.0,0.04,1087.29,0.11,6.0,0.11,1.0,212.43,-11.0,-0.05,705.99,6.0,0.8,3.64,-0.45,3.0,Very Low
388.0,2.18,-115.86,13.0,0.08,0.2,0.1,0.89,-1.38,6327.0,-1.38,-6806.0,-4705.0,1175.5,0.18,-5.56,985.24,0.09,6.0,61.0,0.75,-88.0,139.07,785.0,3.0,5.0,5.67,-7075.0,2.15,-0.41,-2.09,5.92,0.61,0.26,0.16,0.04,10713.0,2790.39,24.02,37.64,6.0,0.98,0.12,581.0,1.39,-0.26,-79.0,31.0,2205.5,110.5,0.4,3.0,2078.49,-20.9,5.0,-7.56,1.7,-7.0,1.0,503.0,5705.0,11.0,-16.61,-0.38,6.0,15.0,-9.51,-0.73,0.05,0.01,1.14,0.02,0.08,2.61,5.0,0.06,1239.93,0.28,41.0,0.82,1.0,1710.7,-145.0,2.05,-92.06,44.0,0.8,20.5,2.14,7.0,Low
1792.0,0.05,-1154.47,36.5,0.29,1.72,1.72,1.61,-0.64,6327.0,-0.33,-6806.0,-6239.0,4519.5,0.37,-5.97,782.83,4.14,19.0,61.0,0.0,-88.0,92.64,3763.5,3.0,19.0,-1.89,-7075.0,-0.4,0.69,0.73,-1.24,4.2,0.0,0.09,0.39,10713.0,3435.22,28.6,45.42,3.0,0.98,1.31,2038.0,1.76,-0.25,-81.0,43.0,2427.0,71.3,1.28,3.0,2099.13,-22.86,3.0,-6.34,-0.11,-7.76,1.0,1163.0,5705.0,42.5,-17.59,-0.7,4.0,15.0,-8.24,-0.36,0.99,0.07,4.2,0.73,0.0,0.01,6.0,0.32,1017.14,-0.35,64.5,1.1,14.0,2858.87,-145.0,0.2,-888.52,65.0,0.39,29.99,-0.57,33.0,Very High
1386.0,1.18,-725.38,28.0,0.39,1.91,1.81,1.69,-0.88,5356.0,-0.08,-4308.0,-6239.0,2049.0,0.41,-0.28,1014.96,4.19,13.0,75.0,0.0,-65.0,768.82,2869.0,4.0,15.0,-1.81,-5395.0,0.89,0.16,0.54,-1.66,4.2,0.0,0.1,0.43,9965.0,2579.67,21.37,31.47,3.0,1.0,3.79,1160.0,-0.23,-0.1,-81.0,43.0,1922.0,582.56,1.61,2.0,1511.77,-0.84,5.0,-1.65,-0.19,-0.37,2.0,939.0,2984.0,31.5,-0.64,-1.4,5.0,6.0,-2.18,0.18,0.54,0.07,4.2,0.81,0.0,1.27,7.0,0.66,1339.48,-0.63,39.0,0.71,7.0,2808.04,-85.0,0.39,-549.64,65.0,0.39,24.42,0.03,18.0,Very High
1632.0,2.03,-171.85,23.0,0.23,1.08,1.03,0.84,-0.04,5356.0,0.6,-2239.0,-3139.0,1620.0,0.19,2.82,1407.88,0.08,11.0,75.0,0.07,-26.0,1122.71,3459.5,4.0,11.0,5.77,-3528.0,-0.9,0.41,2.74,5.78,4.2,0.41,0.19,0.24,9965.0,2084.21,17.92,24.83,3.0,1.0,0.24,800.0,-1.0,0.66,-33.0,26.0,2258.5,864.08,0.99,2.0,1400.39,3.82,3.0,-2.69,-0.59,3.67,4.0,1057.0,2984.0,23.0,2.94,5.87,3.0,9.0,-3.5,1.23,0.04,0.01,4.2,0.02,0.0,2.47,4.0,0.12,1829.29,0.22,34.5,2.78,4.0,2136.84,-39.0,-2.74,-132.26,65.0,0.81,15.36,-0.94,16.0,Very High
1804.0,0.34,396.84,19.5,0.15,0.15,0.15,0.52,-0.06,4491.0,0.2,-2239.0,-3139.0,2312.5,0.12,4.84,1150.86,0.1,10.0,52.0,0.83,-23.0,1262.72,3610.0,8.0,9.0,3.49,-3528.0,-0.43,0.15,-1.55,3.39,0.86,0.4,0.2,0.03,5968.0,1827.32,14.97,24.19,4.0,1.0,0.29,1204.0,-1.23,-0.22,-33.0,26.0,2884.5,982.12,0.67,7.0,1682.99,5.14,5.0,-2.15,-0.89,6.22,8.0,1454.0,3566.0,18.0,3.99,-1.24,4.0,8.0,-2.76,0.36,0.04,0.01,0.76,0.02,0.0,0.18,4.0,0.14,1479.67,-0.15,37.0,-0.32,4.0,2113.38,-39.0,1.6,308.66,65.0,0.88,12.77,-1.25,20.0,Very High
1692.0,-0.81,94.14,29.0,0.12,0.61,0.26,0.51,-0.59,4491.0,-0.66,-4048.0,-5602.0,2062.0,0.12,-1.18,1045.37,0.23,14.0,32.0,0.0,-46.0,622.64,3173.0,1.0,9.0,1.29,-3902.0,0.37,0.22,5.0,27.87,0.85,0.0,0.17,0.33,6240.0,1722.48,17.65,39.6,4.0,1.0,0.29,978.0,-0.89,-0.17,-53.0,17.0,2710.5,481.73,0.55,1.0,1770.63,-16.55,10.0,-5.71,-0.28,-1.53,1.0,1290.0,3566.0,18.0,-12.81,0.12,62.0,7.0,-7.37,-0.27,0.08,0.01,4.17,0.03,0.0,0.97,1.0,0.12,1351.16,-0.46,59.0,-1.08,4.0,2387.8,-125.0,-1.79,72.83,44.0,0.75,14.65,-0.45,30.0,Very High
1148.5,-0.07,-733.76,18.0,0.11,0.59,0.24,0.54,0.14,3151.0,-0.09,-4048.0,-5602.0,1137.75,0.13,-3.72,1144.22,0.06,9.0,27.0,0.0,-46.0,-329.68,2246.75,2.0,10.5,0.96,-3902.0,0.29,-0.33,5.22,30.59,0.83,0.0,0.17,0.33,6240.0,1409.9,14.34,46.24,6.0,0.96,0.24,571.5,1.05,-0.46,-53.0,41.0,1169.75,-250.69,0.47,1.0,963.43,-11.66,7.0,-2.03,-0.17,-4.89,1.0,570.0,1721.0,21.0,-8.86,-0.01,45.0,12.0,-2.67,-0.45,0.03,0.01,4.17,0.02,0.0,4.67,2.0,0.14,1504.73,-0.7,56.25,-0.88,7.0,1842.9,-125.0,-1.71,-557.96,88.0,0.73,19.22,0.03,29.0,Very High
759.0,2.19,-453.73,11.0,0.05,0.28,0.25,0.25,1.19,4527.0,1.28,-2411.0,-4110.0,904.5,0.06,0.77,1384.37,0.55,5.0,34.0,0.0,-45.0,663.27,1655.0,5.0,6.0,-1.94,-333.0,0.65,0.77,0.26,-1.91,0.67,0.0,0.1,0.44,4374.0,841.3,11.38,25.19,3.0,0.88,0.46,451.0,2.16,0.21,-22.0,41.0,723.0,494.93,0.21,7.0,743.98,11.84,3.0,2.12,1.34,1.03,3.0,357.0,2189.0,13.5,8.84,-1.68,3.0,7.0,2.84,-0.54,0.0,0.0,0.64,0.88,0.0,0.65,7.0,0.0,1855.24,-0.71,24.5,0.37,3.0,1708.58,-31.0,0.24,-338.57,88.0,0.39,14.61,0.76,11.0,Very High
330.0,2.3,-241.36,9.0,0.03,0.34,0.2,0.17,1.53,4527.0,1.03,-1893.0,-4110.0,677.5,0.04,4.82,1556.08,0.0,5.0,41.0,0.0,-45.0,1284.78,692.5,6.0,4.0,-0.52,0.0,3.77,1.07,1.64,0.98,0.68,0.0,0.05,0.37,4374.0,732.0,13.47,11.0,3.0,1.0,0.07,315.0,3.38,0.06,-22.0,37.0,572.5,968.52,0.1,8.0,625.56,5.08,3.0,-1.04,3.02,6.39,2.0,280.0,2189.0,8.0,3.83,2.34,3.0,6.0,-1.38,-0.22,0.0,0.0,1.06,0.19,0.0,1.44,6.0,0.0,2064.19,-1.37,11.0,1.83,4.0,1468.33,-30.0,1.19,-181.95,45.0,0.21,9.26,3.88,5.0,Very High
483.0,1.11,-161.1,15.5,0.07,0.49,0.18,0.79,0.86,4219.0,-0.22,-1493.0,-1109.0,1043.0,0.18,6.71,1295.78,0.87,8.0,44.0,0.0,-37.0,1421.48,982.0,5.0,4.0,-0.08,-271.0,1.31,-0.14,-0.79,-1.12,0.68,0.0,0.14,0.33,3013.0,680.06,15.09,11.94,3.0,1.0,0.08,451.0,1.36,-0.75,-20.0,19.0,361.0,1099.78,0.3,6.0,402.16,-0.9,3.0,-2.13,1.51,8.67,1.0,186.0,929.0,9.0,-0.69,0.23,3.0,1.0,-2.76,-0.2,0.11,0.02,1.24,0.04,0.0,0.2,6.0,0.03,1674.82,0.52,13.5,-0.24,2.0,985.07,-40.0,-1.28,-124.64,33.0,0.62,6.75,0.71,7.0,Very High
498.0,0.11,-279.8,22.0,0.08,0.16,0.04,1.05,-1.27,4505.0,-0.17,-2136.0,-2985.0,872.5,0.24,0.74,1042.97,0.2,11.0,44.0,0.72,-42.0,877.84,1044.0,5.0,4.0,0.23,-271.0,3.4,-0.43,-1.13,0.46,0.48,0.24,0.17,0.04,7425.0,1323.64,17.75,14.24,3.0,0.86,0.05,443.0,1.39,2.59,-35.0,13.0,455.5,679.17,0.36,5.0,571.31,-5.02,11.0,-3.29,1.58,0.96,5.0,228.0,1051.0,8.0,-3.88,1.24,3.0,4.0,-4.26,-0.33,0.08,0.02,1.24,0.05,0.61,8.21,1.0,0.03,1348.05,-0.55,16.0,0.01,1.0,1423.08,-50.0,1.03,-216.48,33.0,0.77,7.6,1.53,8.0,Very High
1006.5,1.18,400.03,19.75,0.08,0.24,0.06,0.82,-0.38,6673.0,0.62,-2136.0,-2985.0,1341.25,0.18,2.84,1063.95,0.39,10.0,62.0,0.75,-42.0,1373.13,1947.5,1.0,6.5,-0.03,-4881.0,0.18,0.74,-0.8,-0.16,0.48,0.19,0.18,0.05,7425.0,1841.39,17.66,31.97,5.0,0.96,0.05,578.5,0.15,0.26,-35.0,28.0,1828.0,1077.83,0.35,2.0,1322.26,16.38,5.0,2.19,-0.05,3.62,1.0,730.0,4334.0,15.75,12.85,0.44,5.0,4.0,2.79,-0.11,0.15,0.03,1.14,0.08,0.2,3.19,5.0,0.03,1355.44,0.23,41.0,-0.48,1.0,2229.01,-50.0,0.83,314.0,108.0,0.82,14.48,-0.12,18.5,Very High
603.0,1.39,1244.22,18.0,0.08,0.29,0.08,0.91,0.04,6673.0,0.83,-1186.0,-2267.0,1131.5,0.19,4.74,1140.84,0.5,9.0,62.0,0.74,-26.0,1899.91,1578.5,1.0,6.0,-0.26,-4881.0,-0.02,0.23,-1.03,-0.29,0.5,0.19,0.16,0.07,4473.0,1418.5,14.87,28.13,4.0,0.96,0.13,552.0,1.13,-1.7,-34.0,28.0,1066.0,1509.66,0.39,1.0,967.84,21.29,4.0,2.19,0.31,5.97,1.0,575.0,4334.0,16.5,16.91,-0.7,4.0,5.0,2.76,0.52,0.07,0.02,1.15,0.11,0.2,6.48,5.0,0.08,1435.76,0.54,36.0,-0.36,4.0,1753.78,-44.0,1.02,988.65,108.0,0.8,13.39,0.88,16.0,Very High
,,,,,,,,,,,,,,,,,,,,,,,,,,,,,,,,,,,,,,,,,,,,,,,,,,,,,,,,,,,,,,,,,,,,,,,,,,,,,,,,,,,,,,,,,,
1384.0,0.94,345.26,17.0,0.1,0.82,0.16,0.77,-1.28,5021.0,-1.26,-1430.0,-4137.0,1701.0,0.17,-0.28,1608.7,0.29,8.0,45.0,0.17,-45.0,-402.25,2952.75,6.0,8.0,6.64,-3171.0,2.31,0.27,2.66,6.67,0.82,0.26,0.18,0.18,5914.0,1529.26,15.52,27.66,7.0,1.0,0.2,858.0,-0.24,-0.4,-57.0,15.0,1008.0,-318.36,0.44,20.0,695.68,-10.08,4.0,-5.75,1.85,-0.35,4.0,532.0,2214.0,16.0,-7.98,0.01,7.0,7.0,-7.27,-0.52,0.2,0.04,3.75,0.06,0.0,1.41,4.0,0.02,2032.61,0.65,25.25,1.16,2.0,2131.7,-99.0,-2.65,273.26,47.0,0.83,13.23,-0.32,12.0,High
476.0,1.58,693.32,9.0,0.11,0.84,0.19,0.6,-1.62,5021.0,-1.75,-1430.0,-4137.0,526.5,0.13,-0.92,1506.75,0.34,5.0,45.0,0.17,-45.0,243.49,1635.5,1.0,5.0,7.59,-3171.0,3.11,-0.71,2.91,7.62,0.82,0.2,0.19,0.19,5914.0,1422.3,14.8,26.39,6.0,1.0,0.35,273.0,2.78,-0.35,-57.0,15.0,371.5,189.38,0.48,19.0,542.89,-8.39,5.0,-4.72,3.1,-1.18,1.0,186.0,2214.0,13.5,-6.53,-1.34,6.0,7.0,-6.07,-0.5,0.11,0.03,3.75,0.07,0.0,2.69,2.0,0.12,1937.25,0.39,17.0,0.38,8.0,1790.43,-99.0,-2.9,539.25,47.0,0.87,13.07,0.66,7.0,High
349.0,3.24,755.99,6.0,0.09,0.25,0.16,0.35,-1.55,1726.0,-0.37,-535.0,-3351.0,420.0,0.07,1.55,1627.93,0.5,3.0,31.0,0.85,-14.0,-349.13,677.0,9.0,3.0,-1.49,-1433.0,2.86,0.37,-0.39,-1.49,0.78,0.19,0.19,0.05,4945.0,890.33,6.91,17.38,9.0,1.0,0.21,218.0,1.45,-0.07,-29.0,10.0,421.5,-277.42,0.43,7.0,462.24,0.69,6.0,-1.2,3.03,1.95,7.0,208.0,2170.0,6.0,0.55,-0.29,9.0,4.0,-1.51,1.22,0.15,0.03,0.66,0.11,0.0,4.48,7.0,0.1,2048.76,-0.64,10.0,0.67,7.0,1022.5,-65.0,0.36,600.71,54.0,0.92,7.3,1.26,5.0,High
848.0,1.83,907.06,10.0,0.08,0.37,0.08,0.62,-0.81,1726.0,-0.24,-535.0,-3351.0,1158.0,0.13,2.45,1629.59,0.49,5.0,35.0,0.77,-24.0,-795.7,1707.5,8.0,6.0,-1.02,-1433.0,-0.01,-0.04,-0.53,-1.01,0.52,0.19,0.18,0.08,4945.0,1053.71,9.75,21.95,5.0,1.0,0.1,554.0,-0.6,-0.06,-29.0,13.0,853.0,-632.26,0.38,3.0,614.53,3.82,7.0,-1.78,0.34,3.08,2.0,476.0,2170.0,13.5,3.04,0.08,5.0,4.0,-2.24,0.49,0.33,0.07,1.05,0.1,0.0,1.32,6.0,0.03,2050.84,-0.17,26.5,-0.3,6.0,1213.72,-65.0,0.51,720.75,54.0,0.86,9.48,-0.62,13.0,Medium
925.0,2.21,747.44,13.0,0.09,0.31,0.13,0.71,-0.58,505.0,-0.64,-569.0,-4012.0,943.5,0.15,3.3,1488.82,0.43,6.0,52.0,0.77,-24.0,-1032.25,2025.0,5.0,6.0,0.15,274.0,-0.09,0.06,-0.97,0.12,0.82,0.2,0.18,0.07,4236.0,847.9,12.46,24.08,5.0,1.0,0.04,480.0,-0.33,0.46,-28.0,18.0,735.0,-807.13,0.41,3.0,591.78,2.35,3.0,-1.68,1.02,4.22,1.0,369.0,2139.0,13.5,1.84,2.2,5.0,6.0,-2.15,0.97,0.23,0.05,1.05,0.09,0.0,0.13,5.0,0.02,1904.07,-0.49,26.5,1.67,1.0,1140.89,-81.0,0.98,584.43,54.0,0.84,9.57,-0.94,13.0,Medium
1216.0,5.14,868.1,26.5,0.11,0.34,0.13,0.68,-0.65,7028.0,0.36,-1774.0,-4012.0,2628.0,0.15,3.43,1603.56,0.44,15.0,157.0,0.76,-69.0,-251.8,2405.0,7.0,9.0,-0.6,-6183.0,0.23,1.68,-0.66,-0.62,0.82,0.35,0.19,0.08,8048.0,2665.82,30.97,41.51,5.0,1.0,0.09,1254.0,4.17,-0.07,-45.0,31.0,1065.0,-196.89,0.49,13.0,1310.37,-7.5,6.0,-3.35,0.04,4.39,6.0,532.0,5726.0,18.0,-5.87,0.18,5.0,13.0,-4.28,1.12,0.23,0.05,1.09,0.09,0.0,0.48,1.0,0.07,2050.82,1.38,52.0,1.19,6.0,2296.61,-97.0,0.67,678.78,109.0,0.85,15.69,2.16,28.0,Medium
1658.0,2.02,552.45,45.0,0.1,0.3,0.13,0.67,-0.39,7028.0,0.27,-2091.0,-7552.0,5495.5,0.14,3.49,1204.82,0.5,23.0,157.0,0.76,-69.0,-1100.43,3458.0,1.0,13.0,-1.0,-8016.0,-0.19,1.04,-0.14,-0.98,0.82,0.28,0.18,0.07,9235.0,3697.81,38.12,51.98,5.0,1.0,0.07,2619.0,1.59,-0.04,-54.0,59.0,2188.0,-865.04,0.47,13.0,1598.61,14.18,5.0,1.39,0.16,4.44,2.0,1061.0,5726.0,27.5,11.15,0.75,5.0,13.0,1.76,1.02,0.24,0.06,1.09,0.1,0.0,-0.49,1.0,0.04,1532.66,0.64,80.0,1.06,1.0,3007.52,-97.0,0.13,434.28,172.0,0.85,22.45,0.62,37.0,High
1102.0,1.56,-299.5,36.75,0.09,0.2,0.22,0.46,-0.19,2235.0,1.24,-3539.0,-7552.0,2701.25,0.1,5.1,900.31,0.16,17.0,110.0,0.0,-48.0,-2263.34,2132.0,2.0,12.0,4.94,-8016.0,1.29,0.22,-1.08,0.62,0.9,0.0,0.17,0.27,9235.0,2841.72,29.57,37.6,7.0,0.96,0.18,1140.0,0.28,-0.06,-54.0,59.0,1343.5,-1776.6,0.43,11.0,1145.66,22.61,12.0,3.74,2.82,6.49,1.0,626.0,2796.0,23.0,17.75,0.15,5.0,8.0,4.76,0.98,0.05,0.01,0.8,0.02,0.0,1.42,3.0,0.09,1146.97,-0.3,38.5,0.06,6.0,1821.93,-61.0,-2.61,-235.09,172.0,0.8,17.83,0.7,17.5,High
616.0,0.08,-587.8,32.0,0.08,0.31,0.2,0.65,0.43,305.0,0.39,-3539.0,-3629.0,1408.0,0.14,2.91,1185.0,0.33,16.0,71.0,0.0,-28.0,-1499.04,1203.0,2.0,6.0,4.6,-1847.0,-0.21,0.42,-0.44,0.02,0.9,0.0,0.16,0.26,5306.0,1319.03,21.45,21.95,5.0,0.92,0.09,696.0,1.86,0.35,-18.0,22.0,1010.0,-1178.39,0.38,5.0,947.02,6.38,11.0,-1.74,1.8,3.7,7.0,520.0,2530.0,12.0,5.02,1.15,3.0,10.0,-2.22,0.7,0.16,0.04,1.17,0.1,0.0,0.51,3.0,0.05,1507.45,-0.35,19.5,0.53,6.0,887.97,-61.0,-2.5,-462.07,77.0,0.76,8.86,-0.29,11.0,High
267.0,1.36,-556.83,15.0,0.08,0.32,0.04,1.17,0.24,923.0,0.17,-2084.0,-2554.0,733.0,0.26,1.24,1300.98,0.58,6.0,47.0,0.64,-28.0,-1015.41,601.0,6.0,4.0,-1.36,-321.0,-0.32,-0.23,-0.27,-1.34,0.42,0.22,0.16,0.07,4416.0,814.79,14.4,13.41,3.0,0.86,0.04,297.0,0.15,0.35,-18.0,12.0,695.5,-793.96,0.35,7.0,553.19,0.85,20.0,-3.81,-0.23,1.59,3.0,347.0,735.0,8.5,0.66,1.16,3.0,7.0,-4.88,0.73,0.29,0.06,1.61,0.13,0.61,1.51,6.0,0.03,1663.84,0.04,16.5,-0.7,6.0,589.61,-33.0,0.25,-435.39,34.0,0.74,6.39,1.12,8.0,High
535.5,6.59,-483.77,19.75,0.09,0.29,0.09,1.38,2.75,4277.0,2.27,-12368.0,-5183.0,1008.5,0.3,7.97,1038.71,0.34,9.0,172.0,0.63,-65.0,-1261.22,1340.5,3.0,5.0,1.35,-8407.0,8.66,-2.14,-1.37,1.18,0.7,0.33,0.15,0.06,10713.0,2965.27,32.56,49.9,5.0,0.88,0.13,552.5,11.31,-0.59,-26.0,91.0,791.0,-984.7,0.43,7.0,2108.96,17.6,3.0,-0.87,4.92,10.21,1.0,411.5,5362.0,10.0,13.74,0.73,5.0,17.0,-1.12,1.94,0.13,0.03,1.67,0.07,0.56,3.5,3.0,0.05,1330.4,-0.03,29.5,1.02,10.0,1544.92,-27.0,1.41,-377.7,235.0,0.69,18.87,1.4,12.0,High
1929.5,3.67,-1574.88,32.5,0.11,0.53,0.18,0.86,0.32,11124.0,0.97,-12368.0,-5183.0,4841.5,0.19,5.29,552.73,0.95,14.5,172.0,0.0,-65.0,543.04,3862.0,3.0,18.0,4.69,-8407.0,1.38,-0.79,0.34,-1.16,0.79,0.0,0.16,0.23,10713.0,4057.86,36.8,53.1,9.0,0.91,0.15,2243.5,2.3,-0.34,-82.0,91.0,3194.75,423.98,0.49,2.0,2689.7,43.13,16.0,1.06,0.83,6.78,3.0,1341.5,5362.0,36.0,33.67,1.95,4.0,7.0,1.36,1.49,0.2,0.07,1.67,0.23,0.0,-0.26,1.0,0.09,707.95,0.79,75.0,-1.23,1.0,3328.42,-38.0,-2.26,-1229.59,235.0,0.74,26.68,0.74,39.0,Very High
,,,,,,,,,,,,,,,,,,,,,,,,,,,,,,,,,,,,,,,,,,,,,,,,,,,,,,,,,,,,,,,,,,,,,,,,,,,,,,,,,,,,,,,,,,
1648.0,0.99,-1414.29,42.75,0.12,0.54,0.14,0.71,0.05,6887.0,0.23,-6273.0,-5347.0,4792.25,0.16,1.88,1698.35,0.43,18.5,110.0,0.27,-81.0,671.89,3356.5,9.0,10.0,11.05,-5284.0,-0.48,-0.52,2.55,11.08,0.79,0.32,0.19,0.12,9911.0,3190.77,32.02,30.37,3.0,1.0,0.26,2318.0,-0.63,0.08,-29.0,33.0,2530.25,527.4,0.52,12.0,1931.99,-0.92,5.0,0.21,0.48,2.39,6.0,1166.0,2222.0,20.0,-0.73,-1.35,3.0,6.0,0.27,0.79,0.25,0.05,3.3,0.1,0.0,-0.41,6.0,0.13,2163.66,0.13,35.0,0.18,2.0,2297.81,-86.0,-2.55,-1110.15,87.0,0.84,14.18,0.26,16.5,Very High
1748.0,-0.0,-393.7,56.0,0.08,0.97,0.25,0.96,-0.68,3333.0,-0.42,-5278.0,-5347.0,5918.0,0.22,-1.95,1215.41,1.15,29.0,110.0,0.0,-122.0,-173.28,3503.0,5.0,13.0,-1.52,-8232.0,0.67,0.86,1.14,0.41,0.81,0.0,0.12,0.36,10911.0,4303.61,46.01,47.5,3.0,0.89,0.51,2997.0,0.19,-0.15,-74.0,44.0,3615.0,-133.64,0.34,4.0,3223.36,-13.77,14.0,-3.77,0.48,-2.52,10.0,1824.0,8361.0,26.0,-10.62,-1.01,26.0,6.0,-4.88,-0.15,0.36,0.14,3.32,0.81,0.0,-0.6,1.0,0.17,1575.85,-0.22,62.0,-0.05,1.0,2143.68,-159.0,-0.45,-303.65,97.0,0.51,23.94,-0.71,31.0,Very High
661.5,0.74,786.47,32.5,0.06,0.92,0.24,0.79,-0.28,2861.0,-0.75,-3286.0,-4304.0,3070.25,0.17,-6.55,1079.18,0.78,17.0,110.0,0.0,-122.0,-860.58,1333.75,5.0,11.0,-1.58,-8232.0,0.36,1.05,1.56,1.35,0.81,0.0,0.12,0.39,10911.0,3563.3,41.71,41.83,3.0,0.89,0.44,1643.0,0.53,-0.26,-74.0,44.0,2806.5,-671.9,0.28,4.0,2615.84,-15.75,32.0,-9.14,1.76,-8.38,1.0,1257.5,8361.0,23.25,-12.29,-0.76,25.0,7.0,-11.71,0.1,0.26,0.07,3.32,0.87,0.0,0.74,13.0,0.24,1382.24,-0.07,41.75,0.4,10.0,1281.69,-159.0,-0.46,614.03,97.0,0.53,23.79,0.84,20.5,Very High
343.0,0.38,135.98,26.5,0.07,0.34,0.09,0.98,-0.37,2861.0,-0.81,-1570.0,-2633.0,1079.0,0.21,4.6,1430.13,0.69,12.0,70.0,0.68,-44.0,-774.84,682.5,1.0,5.0,-1.6,-1903.0,1.83,2.26,0.03,-1.6,0.55,0.18,0.16,0.08,7871.0,1374.71,23.65,12.3,4.0,0.89,0.07,523.0,5.74,0.82,-52.0,39.0,717.0,-612.37,0.34,1.0,1302.34,-2.04,41.0,-1.96,0.49,5.82,6.0,332.0,5861.0,11.0,-1.61,-0.01,4.0,9.0,-2.48,0.6,0.35,0.08,1.43,0.16,0.5,4.11,4.0,0.04,1809.55,1.58,15.0,-0.05,1.0,769.09,-42.0,-0.02,107.47,20.0,0.78,16.81,5.41,7.0,High
572.0,2.77,-1167.5,34.0,0.08,0.51,0.2,0.85,0.4,2802.0,1.51,-11910.0,-4538.0,2380.5,0.19,6.5,1205.82,0.8,18.0,183.0,0.0,-103.0,-787.16,1166.0,2.0,9.0,0.26,-10921.0,1.4,-0.47,-0.57,-1.04,0.86,0.0,0.14,0.31,9960.0,3778.26,39.23,39.26,3.0,0.9,0.14,1198.0,1.18,-0.6,-47.0,91.0,2862.0,-612.23,0.35,9.0,3571.55,10.77,21.0,2.87,3.03,8.36,9.0,696.0,6850.0,20.5,8.38,0.12,4.0,16.0,3.69,0.49,0.39,0.05,1.43,0.11,0.0,1.45,6.0,0.05,1550.34,-0.16,25.0,-0.31,8.0,1391.54,-61.0,-1.41,-908.05,167.0,0.62,21.42,0.44,12.0,Very High
1030.0,4.23,-1697.44,37.5,0.08,0.37,0.29,0.44,0.15,2802.0,0.17,-11910.0,-4538.0,4709.5,0.1,-0.9,1227.66,0.64,17.0,183.0,0.0,-103.0,-362.12,2105.5,1.0,16.0,-1.63,-10921.0,0.42,-0.05,0.11,-0.84,0.86,0.0,0.13,0.41,9960.0,3994.25,38.03,51.92,8.0,0.9,0.58,2425.0,0.95,-0.5,-59.0,91.0,3474.0,-277.24,0.35,9.0,3590.37,5.96,8.0,-3.81,1.01,-1.17,7.0,1627.0,6850.0,32.0,4.56,-1.57,8.0,16.0,-4.98,0.94,0.16,0.05,1.33,0.87,0.0,0.67,6.0,0.17,1603.47,-0.7,64.5,-0.23,7.0,1527.21,-172.0,-0.58,-1299.6,167.0,0.55,26.53,0.02,32.0,Very High
1136.0,-0.43,-529.59,42.5,0.11,0.37,0.26,0.6,-0.01,2664.0,0.1,-4633.0,-4482.0,3253.5,0.14,4.42,1036.16,0.19,21.0,86.0,0.0,-78.0,-181.05,2243.0,2.0,25.0,0.76,-5323.0,-0.2,0.78,0.36,0.72,0.88,0.0,0.17,0.33,10023.0,2675.56,37.54,84.74,8.0,0.89,0.21,1618.0,1.36,0.47,-90.0,88.0,1942.0,-137.9,0.47,2.0,1797.24,0.28,9.0,-1.27,-0.05,5.8,2.0,990.0,5662.0,44.0,0.21,-0.41,12.0,7.0,-1.67,-0.11,0.08,0.03,1.62,0.16,0.0,0.64,2.0,0.1,1360.4,-0.62,102.0,-0.69,7.0,1492.27,-172.0,-1.62,-403.36,218.0,0.69,37.25,0.3,46.0,Very High
1602.0,-1.18,-885.45,91.5,0.11,0.29,0.16,0.79,0.06,5184.0,-0.11,-10660.0,-7546.0,6131.5,0.17,-1.59,742.35,0.35,45.0,119.0,0.64,-88.0,36.1,3212.5,3.0,28.0,0.33,-7507.0,-0.43,-1.36,1.08,0.35,0.88,0.29,0.18,0.07,10023.0,4012.57,49.91,85.86,10.0,0.91,0.19,3001.0,2.27,-0.14,-90.0,88.0,2332.5,28.07,0.52,2.0,2690.86,10.48,3.0,-0.71,-0.27,-2.05,3.0,1088.0,4630.0,54.0,8.15,-0.39,10.0,11.0,-0.91,0.08,0.18,0.04,1.62,0.08,0.42,-0.62,8.0,0.07,954.45,-0.67,108.5,0.88,2.0,2400.54,-165.0,-1.08,-688.68,218.0,0.82,37.61,0.31,53.0,Very High
1170.0,0.4,-593.8,45.5,0.1,0.56,0.1,1.33,0.04,5184.0,0.24,-10660.0,-7546.0,4041.5,0.29,-2.22,893.74,1.1,15.0,119.0,0.56,-88.0,-447.71,3377.0,2.0,18.0,-1.54,-7507.0,-0.85,-1.85,-0.26,-1.55,0.8,0.29,0.16,0.12,7670.0,3519.29,36.85,44.5,4.0,0.91,0.05,1970.0,3.06,-0.59,-55.0,48.0,1495.0,-348.22,0.43,1.0,2651.11,-5.88,24.0,-8.33,-0.08,-2.85,1.0,792.0,3209.0,34.0,-4.57,3.91,4.0,12.0,-10.71,-0.33,0.46,0.1,1.96,0.24,0.42,0.06,7.0,0.02,1149.09,-0.03,58.0,1.85,1.0,2304.33,-136.0,0.27,-461.84,108.0,0.7,23.97,0.21,30.0,Very High
929.0,1.27,-308.84,28.0,0.1,0.55,0.08,1.35,0.54,2771.0,1.56,-11304.0,-4422.0,3642.5,0.31,6.04,1336.42,1.15,14.0,118.0,0.56,-83.0,-854.88,2414.25,3.0,18.0,-1.5,-9727.0,1.07,-0.61,-0.36,-1.5,0.68,0.36,0.16,0.12,8903.0,3289.62,37.04,53.69,4.0,0.88,0.12,1745.0,1.93,-0.5,-55.0,104.0,2338.25,-661.84,0.46,2.0,3263.19,-3.44,3.0,-3.51,3.14,7.8,1.0,1184.0,8187.0,39.25,-2.67,0.39,4.0,14.0,-4.53,0.18,0.43,0.1,1.96,0.25,0.53,1.45,6.0,0.04,1726.22,0.36,41.75,0.98,8.0,1604.44,-87.0,0.36,-239.1,215.0,0.7,27.18,-0.56,19.5,Very High
521.5,1.1,-1430.71,41.25,0.1,0.27,0.08,0.81,1.23,2549.0,1.67,-11304.0,-4422.0,3029.5,0.17,-0.47,1184.68,0.29,18.0,118.0,0.67,-83.0,-427.01,1045.0,2.0,12.5,0.53,-9727.0,3.47,0.21,0.65,0.49,0.68,0.32,0.17,0.06,8903.0,3283.51,38.45,47.41,6.0,0.95,0.1,1344.5,2.06,-0.33,-49.0,104.0,1978.75,-337.86,0.47,6.0,3210.96,10.94,9.0,-1.71,4.07,-0.6,11.0,1001.0,8187.0,25.25,8.66,0.19,6.0,13.0,-2.16,0.71,0.16,0.04,1.48,0.06,0.2,1.36,6.0,0.05,1497.31,-0.74,30.25,0.31,8.0,1311.27,-65.0,-0.72,-1131.99,215.0,0.82,22.59,1.02,16.0,Very High
344.0,-1.05,-1217.76,27.0,0.08,0.13,0.09,0.77,-0.13,1016.0,-0.59,-6404.0,-1664.0,1414.5,0.15,-1.17,1114.6,0.14,13.0,26.0,0.8,-32.0,-220.24,694.5,2.0,5.0,7.0,-1185.0,-0.39,-1.3,-2.33,7.47,0.56,0.22,0.16,0.03,3234.0,1013.22,15.6,17.27,7.0,0.95,0.13,629.0,4.37,-0.52,-27.0,14.0,1310.5,-176.91,0.4,2.0,1228.2,-0.56,4.0,-5.36,1.1,-1.46,1.0,652.0,1072.0,12.0,-0.45,-0.96,7.0,1.0,-6.67,-0.16,0.07,0.02,0.91,0.03,0.2,-0.53,4.0,0.09,1387.56,-0.38,23.5,-0.08,1.0,545.03,-61.0,2.21,-978.2,37.0,0.83,9.25,0.13,11.0,High
607.0,1.3,-1136.11,17.5,0.08,0.12,0.14,0.71,-1.05,3524.0,-0.09,-4446.0,-3946.0,1222.5,0.14,1.02,1445.77,0.2,9.0,53.0,0.8,-48.0,-118.31,1149.0,2.0,8.0,-1.17,-2588.0,1.99,0.23,-0.46,-1.13,0.79,0.22,0.17,0.03,7484.0,1632.9,16.57,35.31,4.0,0.89,0.11,648.0,-0.0,0.59,-49.0,23.0,2334.5,-94.52,0.4,3.0,1726.59,2.91,4.0,-2.04,1.38,1.27,5.0,1228.0,4086.0,15.5,2.33,1.16,4.0,14.0,-2.55,-0.58,0.07,0.02,0.88,0.05,0.49,2.81,6.0,0.06,1809.67,0.13,42.0,1.29,6.0,1263.82,-111.0,0.39,-907.65,116.0,0.84,13.98,1.58,21.0,High
659.0,0.53,-374.87,26.0,0.08,0.25,0.13,0.8,-0.49,3966.0,-0.66,-4446.0,-3946.0,2114.0,0.16,-2.71,1359.22,0.48,13.0,72.0,0.71,-69.0,-278.01,1650.5,1.0,12.0,-1.15,-6157.0,-0.18,-0.32,0.45,-1.13,0.79,0.18,0.17,0.06,10028.0,2734.68,24.28,46.09,5.0,0.89,0.08,1073.0,-1.04,-0.04,-54.0,48.0,3742.5,-222.1,0.39,2.0,2248.29,-4.5,7.0,-4.4,0.87,-3.39,1.0,1560.0,4086.0,25.0,-3.6,2.37,5.0,14.0,-5.5,-0.24,0.22,0.05,1.31,0.11,0.49,1.45,9.0,0.04,1701.33,0.56,51.0,1.62,1.0,1466.65,-151.0,-0.46,-299.49,116.0,0.82,20.74,0.6,27.0,High
190.0,2.35,155.58,17.5,0.07,0.39,0.04,1.33,-0.23,3966.0,-1.97,-4406.0,-2790.0,835.5,0.28,-3.14,1347.07,0.57,9.0,72.0,0.57,-69.0,-535.26,416.0,2.0,6.0,-0.83,-6157.0,1.55,-0.52,-0.38,-0.88,0.43,0.18,0.15,0.09,10028.0,2291.52,20.63,32.95,3.0,0.88,0.03,441.0,1.63,-0.38,-54.0,48.0,1437.5,-422.88,0.33,11.0,1402.66,-11.0,49.0,-6.41,4.48,-3.98,1.0,629.0,3439.0,14.5,-8.69,4.87,3.0,15.0,-8.11,-0.33,0.28,0.07,1.93,0.12,0.54,4.71,1.0,0.01,1705.03,1.91,18.0,-1.26,2.0,888.18,-151.0,0.4,122.92,34.0,0.7,16.64,6.69,8.0,High
71.0,-0.98,-374.9,10.0,0.09,0.48,0.07,2.08,0.89,-396.0,1.69,-1649.0,-1048.0,580.0,0.48,-0.83,1564.65,0.8,6.0,13.0,0.36,-15.0,-624.55,163.0,2.0,2.0,-1.27,1110.0,0.57,-2.34,0.26,-1.25,0.7,0.31,0.12,0.11,2619.0,354.8,6.68,9.51,3.0,0.7,0.07,267.0,6.65,-0.5,-14.0,11.0,225.0,-481.21,0.38,2.0,299.51,-0.87,3.0,-3.14,3.64,-1.07,3.0,105.0,135.0,4.0,-0.67,10.48,3.0,1.0,-4.07,-0.14,0.4,0.09,2.9,0.18,1.35,-0.79,1.0,0.04,2030.72,-0.74,7.0,2.75,11.0,118.17,-17.0,-0.25,-288.86,34.0,0.54,5.62,0.98,3.0,Very Low
82.0,0.79,-397.71,10.0,0.1,0.26,0.05,2.61,0.78,-407.0,0.01,-1368.0,-1622.0,266.0,0.64,0.91,1667.65,0.4,5.0,26.0,0.35,-11.0,-707.72,163.0,1.0,1.0,-0.68,57.0,0.12,-2.2,-0.62,-0.65,0.7,0.35,0.1,0.06,2747.0,431.62,7.63,4.54,4.0,0.55,0.03,132.0,5.7,-3.29,-11.0,8.0,132.5,-533.75,0.42,3.0,225.68,0.84,7.0,-1.78,2.95,1.2,2.0,74.0,-108.0,5.5,0.64,17.4,4.0,8.0,-2.36,0.77,0.2,0.05,2.9,0.09,2.01,12.22,1.0,0.01,2211.18,-2.3,5.0,3.8,1.0,209.38,-20.0,0.61,-299.95,13.0,0.42,4.59,6.51,3.0,Very Low
247.0,2.44,-25.74,13.0,0.11,0.32,0.07,2.49,-1.44,2431.0,-0.78,-1368.0,-1881.0,349.0,0.6,1.23,1721.9,0.42,6.0,26.0,0.35,-47.0,-552.22,377.0,1.0,4.0,-0.04,57.0,2.43,1.18,-0.65,-0.1,0.71,0.38,0.11,0.07,4277.0,672.7,10.59,28.06,3.0,0.63,0.06,175.0,0.55,-0.24,-34.0,8.0,1242.0,-420.3,0.45,2.0,1000.07,-8.01,3.0,-3.29,0.81,1.62,3.0,407.0,2749.0,7.0,-6.09,2.78,3.0,10.0,-4.32,-0.6,0.24,0.06,2.9,0.09,1.68,2.75,1.0,0.03,2262.35,1.79,25.0,1.7,4.0,897.67,-83.0,0.66,-19.59,62.0,0.45,8.85,2.66,8.0,Low
949.5,1.24,439.95,30.0,0.11,0.56,0.1,1.71,-0.57,4085.0,-0.7,-3548.0,-3535.0,1977.75,0.39,-1.21,1565.53,1.15,15.5,95.0,0.45,-75.0,-363.95,2075.5,2.0,10.5,-1.65,-6943.0,0.62,0.41,0.14,-1.64,0.71,0.29,0.14,0.13,10658.0,3145.73,28.98,48.2,3.0,0.78,0.11,1009.5,0.2,-0.41,-82.0,30.0,1848.0,-281.15,0.46,3.0,1347.73,-10.83,7.0,-7.61,0.6,-1.57,2.0,957.0,4098.0,21.25,-8.37,-0.21,3.0,13.0,-9.86,-0.03,0.52,0.12,2.49,0.26,0.97,2.11,2.0,0.06,2026.62,0.3,59.5,0.02,2.0,1569.42,-171.0,-0.14,339.86,80.0,0.62,22.55,-0.35,28.5,High
611.0,1.09,507.9,34.0,0.1,0.13,0.09,1.18,-1.09,4085.0,-1.91,-3548.0,-3535.0,1552.0,0.26,-1.36,1415.78,0.18,14.0,95.0,0.65,-75.0,-859.42,1321.0,2.0,8.0,0.67,-6943.0,1.24,0.38,0.76,0.43,0.58,0.29,0.17,0.03,10658.0,3122.91,29.41,41.86,10.0,0.78,0.11,808.0,1.76,-0.24,-82.0,30.0,1332.0,-666.4,0.43,2.0,1162.25,3.83,16.0,-3.92,4.7,-1.76,3.0,663.0,4098.0,16.0,2.97,-0.81,10.0,13.0,-5.06,0.08,0.09,0.02,1.57,0.04,0.97,2.21,1.0,0.06,1825.87,0.93,20.0,-0.09,2.0,1453.61,-171.0,-0.86,393.82,80.0,0.74,22.67,0.83,10.0,High
310.0,0.47,321.34,12.75,0.09,0.16,0.05,1.27,-0.28,-319.0,-0.29,-643.0,-2391.0,693.0,0.27,2.04,1547.88,0.3,6.5,39.0,0.66,-26.0,-1220.08,619.0,4.0,4.0,-1.31,530.0,1.6,0.49,0.33,-1.36,0.52,0.29,0.15,0.04,3524.0,543.03,13.3,11.13,4.0,0.77,0.03,341.0,-0.5,0.2,-20.0,19.0,726.75,-957.7,0.43,2.0,565.94,4.43,17.0,-1.77,0.15,2.6,4.0,351.0,1653.0,7.75,3.48,1.65,4.0,7.0,-2.25,0.68,0.1,0.02,1.53,0.07,1.04,0.29,2.0,0.02,1971.96,-0.59,14.75,-1.19,1.0,482.35,-23.0,-0.35,252.23,34.0,0.72,6.2,-0.08,7.0,Low
249.5,0.01,209.26,15.75,0.1,0.11,0.03,1.45,0.37,-361.0,0.19,-464.0,-2362.0,738.25,0.31,2.37,1605.81,0.08,8.0,33.0,0.65,-20.0,-973.44,513.5,2.0,3.0,0.42,1052.0,0.75,-0.37,-1.29,0.71,0.52,0.4,0.14,0.03,3524.0,529.04,11.39,12.57,3.0,0.74,0.06,369.0,-0.39,0.45,-20.0,14.0,400.5,-768.23,0.45,4.0,256.9,-1.45,6.0,-2.81,-0.37,3.01,2.0,196.5,705.0,6.75,-1.15,-0.95,3.0,4.0,-3.55,0.41,0.04,0.01,1.57,0.02,1.16,-0.24,2.0,0.03,2034.75,-1.24,14.75,0.31,1.0,445.74,-25.0,1.17,165.15,25.0,0.68,6.96,1.18,7.5,Low
303.0,-0.78,60.77,17.75,0.1,0.05,0.03,1.55,0.38,-392.0,-0.73,-724.0,-1708.0,596.5,0.33,2.57,1681.12,0.05,7.5,28.0,0.64,-20.0,-1037.71,588.5,3.0,4.5,0.22,1166.0,-0.65,-0.39,-0.99,-0.16,0.52,0.41,0.14,0.01,3078.0,435.63,11.11,12.02,3.0,0.68,0.06,286.0,-0.75,-0.04,-14.0,14.0,492.75,-818.95,0.46,2.0,356.63,4.65,6.0,-1.02,0.05,3.25,1.0,238.0,705.0,8.75,3.67,-1.29,3.0,13.0,-1.29,0.34,0.01,0.0,1.62,0.01,1.44,-0.51,1.0,0.03,2130.18,-0.06,14.0,0.21,1.0,357.38,-25.0,1.07,47.96,25.0,0.65,7.19,-1.06,6.0,Very Low
,,,,,,,,,,,,,,,,,,,,,,,,,,,,,,,,,,,,,,,,,,,,,,,,,,,,,,,,,,,,,,,,,,,,,,,,,,,,,,,,,,,,,,,,,,
158.5,3.43,-278.56,6.0,0.08,0.32,0.07,0.83,-1.09,-73.0,-0.56,-1054.0,-1579.0,287.0,0.19,-0.03,1805.76,0.41,3.0,22.0,0.75,-20.0,-663.86,332.25,1.0,2.0,1.42,1159.0,-0.04,1.45,-1.46,1.38,0.56,0.26,0.18,0.07,3146.0,301.65,6.07,8.63,3.0,1.0,0.03,136.0,1.58,-0.38,-20.0,-1.0,445.25,-522.62,0.34,10.0,561.65,-6.2,3.0,-5.0,-0.69,-0.04,1.0,189.0,1320.0,6.25,-4.88,3.59,4.0,5.0,-6.35,-0.03,0.16,0.03,1.11,0.09,0.0,2.73,1.0,0.01,2293.8,-0.94,13.0,2.07,2.0,298.02,-27.0,1.47,-219.29,7.0,0.82,5.48,1.47,5.0,Low
248.0,0.33,-97.6,10.0,0.06,0.37,0.02,0.85,-0.19,-73.0,0.22,-1483.0,-1579.0,385.5,0.18,0.62,1807.56,0.51,5.0,22.0,0.71,-20.0,-745.36,542.5,1.0,4.0,0.11,1159.0,-0.42,0.13,-0.81,0.06,0.37,0.23,0.17,0.08,3146.0,343.69,7.79,11.43,5.0,1.0,0.02,181.0,-1.23,-0.43,-20.0,7.0,1446.0,-589.08,0.31,1.0,818.89,-5.17,10.0,-4.92,-1.0,0.79,1.0,688.0,1320.0,8.0,-4.09,2.45,5.0,7.0,-6.22,-0.38,0.26,0.06,1.29,0.11,0.0,1.0,1.0,0.01,2287.12,-0.38,18.0,-0.75,3.0,366.44,-27.0,0.84,-77.13,18.0,0.81,6.48,-0.62,9.0,Low
250.0,0.82,-335.88,6.5,0.07,0.15,0.03,1.17,-0.18,-251.0,0.25,-1923.0,-2050.0,407.0,0.26,3.45,1743.13,0.09,3.0,24.0,0.7,-18.0,-908.77,541.5,5.0,3.0,3.51,1318.0,-0.49,-0.01,-2.08,3.71,0.37,0.23,0.16,0.03,3474.0,327.82,8.11,10.27,4.0,0.85,0.04,189.0,-1.37,0.3,-14.0,7.0,1856.5,-710.58,0.32,5.0,908.47,2.97,4.0,-1.24,0.26,4.41,4.0,919.0,1140.0,6.5,2.32,1.0,4.0,6.0,-1.59,-0.54,0.04,0.01,1.35,0.02,0.68,1.98,5.0,0.02,2229.31,-0.81,13.5,-0.79,3.0,432.08,-17.0,1.99,-262.63,36.0,0.74,4.36,-0.02,6.0,Low
259.0,0.2,-454.13,11.0,0.05,0.62,0.16,0.88,-0.22,1014.0,-1.17,-1923.0,-2050.0,420.0,0.21,2.28,1591.28,1.23,5.0,24.0,0.0,-22.0,-719.93,509.0,5.0,3.0,-1.2,400.0,0.59,0.66,-0.06,0.45,0.44,0.0,0.12,0.34,3474.0,471.43,9.42,13.65,3.0,0.78,0.34,207.0,0.4,-1.03,-17.0,8.0,927.5,-551.2,0.23,2.0,845.89,-1.4,4.0,-1.93,3.52,2.98,1.0,481.0,2091.0,5.0,-1.07,-1.21,3.0,7.0,-2.52,-0.27,0.11,0.03,2.8,0.75,0.0,2.91,7.0,0.04,2078.41,0.13,7.0,-0.75,5.0,575.96,-51.0,-0.87,-347.69,36.0,0.52,4.32,1.1,4.0,Low
707.0,1.7,-130.74,18.5,0.05,0.59,0.2,0.55,-0.86,5816.0,0.5,-4359.0,-6064.0,1111.0,0.13,2.12,1511.98,1.05,10.0,92.0,0.0,-78.0,-792.46,1526.0,2.0,8.0,-1.81,-5490.0,1.33,0.43,1.19,2.58,0.54,0.0,0.11,0.4,9030.0,2728.55,28.0,34.66,10.0,1.0,0.41,615.0,0.51,-0.32,-78.0,43.0,1222.5,-606.73,0.23,6.0,1377.05,-5.33,9.0,-3.7,2.42,2.77,2.0,465.0,3165.0,16.0,-4.08,-1.66,9.0,12.0,-4.84,0.32,0.54,0.13,2.8,0.79,0.0,1.75,2.0,0.16,1974.83,0.24,27.5,-0.07,2.0,1953.38,-88.0,-0.31,-100.1,124.0,0.48,23.76,1.95,8.0,Medium
761.0,1.71,-134.45,19.5,0.07,0.33,0.16,0.66,-0.68,5816.0,0.24,-4359.0,-6064.0,1236.0,0.14,2.34,1411.32,0.37,10.0,92.0,0.0,-78.0,-1051.56,1534.0,2.0,13.0,2.83,-5490.0,0.63,0.42,-0.84,-0.16,0.58,0.0,0.16,0.28,9030.0,2732.34,27.96,36.42,12.0,1.0,0.2,570.0,1.34,-0.12,-78.0,43.0,901.0,-826.63,0.33,7.0,1286.01,-1.24,17.0,-4.46,1.31,2.98,1.0,435.0,3165.0,27.0,-0.98,-0.29,5.0,13.0,-5.67,0.31,0.2,0.04,1.19,0.08,0.0,1.66,5.0,0.1,1795.35,0.59,37.5,-0.8,11.0,1960.16,-88.0,-2.13,-105.69,124.0,0.73,24.73,2.1,19.0,High
564.0,1.01,-297.65,15.0,0.07,0.23,0.09,0.97,-0.29,1540.0,1.0,-3091.0,-7747.0,877.5,0.2,2.33,1443.63,0.21,7.0,44.0,0.69,-37.0,-1380.78,1220.5,2.0,6.0,-0.45,-1065.0,-0.76,-0.93,0.23,-0.47,0.58,0.12,0.16,0.05,7853.0,1300.19,13.72,27.43,3.0,0.88,0.1,441.0,1.99,2.45,-28.0,13.0,769.5,-1091.26,0.35,4.0,870.33,2.56,14.0,-5.39,1.75,2.95,3.0,334.0,2048.0,15.0,2.03,0.57,3.0,7.0,-6.82,-0.07,0.11,0.02,1.39,0.05,0.55,7.72,1.0,0.04,1826.64,-2.07,33.0,0.01,5.0,1572.7,-41.0,-0.24,-235.24,109.0,0.79,10.3,5.62,15.0,Medium
1338.5,1.37,-155.18,30.5,0.06,0.51,0.2,0.73,0.32,4688.0,0.28,-5315.0,-7747.0,2633.75,0.17,-2.53,1341.94,1.13,15.5,103.0,0.0,-74.0,-479.28,2755.5,3.0,8.0,-1.06,-7139.0,0.76,0.06,-0.46,-1.3,0.65,0.0,0.13,0.35,8532.0,3364.94,31.57,45.35,3.0,0.89,0.41,1229.0,0.69,-0.37,-51.0,42.0,1882.75,-370.24,0.28,14.0,1773.48,-9.9,4.0,-6.87,-0.07,-3.27,1.0,943.0,4524.0,20.0,-7.65,-1.05,4.0,14.0,-8.9,0.43,0.32,0.05,1.39,0.79,0.0,0.33,1.0,0.12,1737.16,-0.46,51.0,-0.29,8.0,2402.29,-110.0,-0.92,-119.87,109.0,0.56,17.49,0.96,28.0,High
695.0,4.02,385.61,14.0,0.02,0.37,0.19,0.19,0.22,4688.0,0.12,-5315.0,-2592.0,1347.0,0.05,-6.28,1180.43,0.0,7.0,103.0,0.0,-74.0,603.09,1974.0,3.0,4.0,-0.25,-7139.0,1.73,-0.61,1.66,1.23,0.65,0.0,0.05,0.35,8532.0,3122.42,28.27,37.65,3.0,0.89,0.0,594.0,1.94,-0.5,-51.0,42.0,932.5,454.64,0.1,14.0,1628.77,-15.48,3.0,-5.82,1.03,-8.33,2.0,464.0,4524.0,9.0,-11.67,1.37,3.0,14.0,-7.72,1.0,0.0,0.0,1.22,0.0,0.0,1.0,2.0,0.0,1565.87,0.35,36.0,1.7,9.0,1534.54,-110.0,1.31,290.69,102.0,0.19,16.29,0.02,10.0,High
350.0,1.29,616.95,7.0,0.0,0.0,0.0,0.0,-0.58,2662.0,-1.68,-811.0,-917.0,458.5,0.0,-4.5,1459.79,0.0,4.0,17.0,0.0,-30.0,551.71,793.0,3.0,4.0,-3.0,417.0,-0.1,-0.77,0.0,-3.0,0.0,0.0,0.0,0.0,3133.0,474.18,8.64,15.08,0.0,0.0,0.0,216.0,1.81,-1.0,-25.0,6.0,412.0,415.9,0.0,2.0,457.43,-9.86,0.0,-5.75,2.66,-5.97,2.0,206.0,1847.0,8.0,-7.43,-3.0,0.0,1.0,-7.63,-0.05,0.0,0.0,0.0,0.0,0.0,2.03,2.0,0.0,1936.46,1.01,10.5,0.0,1.0,864.42,-58.0,0.0,465.08,17.0,0.0,7.13,0.1,4.0,Medium
246.0,1.29,522.73,7.75,0.0,0.0,0.0,0.0,-1.04,2662.0,-2.14,-811.0,-917.0,246.5,0.0,-2.43,1663.38,0.0,4.0,17.0,0.0,-30.0,444.74,478.5,1.0,3.0,-3.0,1286.0,0.29,-1.67,0.0,-3.0,0.0,0.0,0.0,0.0,3133.0,276.09,9.06,15.67,0.0,0.0,0.0,102.5,3.02,-0.27,-25.0,6.0,339.5,338.19,0.0,1.0,375.68,-5.5,0.0,-4.77,3.83,-3.19,1.0,162.5,1104.0,7.75,-4.18,-3.0,0.0,9.0,-6.27,-0.61,0.0,0.0,0.0,0.0,0.0,2.49,3.0,0.0,2187.46,1.65,6.0,0.0,3.0,727.0,-58.0,0.0,397.49,17.0,0.0,7.29,2.72,3.0,Very Low
235.0,2.17,869.59,5.0,0.0,0.0,0.0,0.0,2.55,593.0,2.15,147.0,-1431.0,219.5,0.0,2.21,1737.75,0.0,2.0,26.0,0.0,-4.0,-101.76,465.0,1.0,1.0,-3.0,1686.0,5.72,0.76,0.0,-3.0,0.0,0.0,0.0,0.0,2867.0,207.13,6.52,12.95,0.0,0.0,0.0,105.0,0.06,-0.23,-5.0,25.0,477.5,-76.71,0.0,1.0,391.88,6.37,0.0,-0.31,3.81,2.93,3.0,185.0,1900.0,3.0,4.81,-3.0,0.0,10.0,-0.41,1.66,0.0,0.0,0.0,0.0,0.0,0.8,1.0,0.0,2305.18,-0.88,7.0,0.0,1.0,441.28,-7.0,0.0,655.54,52.0,0.0,6.45,0.54,3.0,Very Low
182.0,2.59,1067.51,5.5,0.0,0.0,0.0,0.0,1.1,105.0,1.37,680.0,-1431.0,210.5,0.0,1.23,1802.2,0.0,3.0,26.0,0.0,-7.0,-340.84,533.0,1.0,3.0,-3.0,1686.0,1.53,0.92,0.0,-3.0,0.0,0.0,0.0,0.0,2867.0,201.93,6.83,15.93,0.0,0.0,0.0,112.0,0.11,-1.23,-17.0,25.0,431.0,-255.63,0.0,1.0,290.76,2.22,0.0,-2.89,1.85,1.65,2.0,180.0,1900.0,9.0,1.67,-3.0,0.0,9.0,-3.85,1.68,0.0,0.0,0.0,0.0,0.0,2.42,1.0,0.0,2402.94,-1.03,12.0,0.0,2.0,346.26,-23.0,0.0,800.63,52.0,0.0,9.11,0.4,5.0,Very Low
140.0,-0.66,836.22,5.0,0.0,0.0,0.0,0.0,-0.69,550.0,-0.75,150.0,-812.0,145.5,0.0,-0.62,1883.45,0.0,2.0,7.0,0.0,-7.0,-41.02,279.0,1.0,2.0,-3.0,2061.0,-0.7,0.33,0.0,-3.0,0.0,0.0,0.0,0.0,2700.0,123.51,3.04,7.21,0.0,0.0,0.0,61.0,0.88,-1.22,-17.0,-1.0,216.5,-30.92,0.0,2.0,221.88,-6.34,0.0,-5.48,-0.5,-0.82,2.0,105.0,1380.0,6.0,-4.78,-3.0,0.0,1.0,-7.27,-0.16,0.0,0.0,0.0,0.0,0.0,1.78,1.0,0.0,2498.46,-0.79,10.0,0.0,1.0,321.7,-23.0,0.0,630.38,3.0,0.0,4.6,0.33,5.0,Very Low
70.0,-0.33,699.07,5.0,-0.01,0.38,0.14,0.06,0.11,550.0,-1.59,92.0,-63.0,91.5,0.01,1.01,1945.73,0.0,2.0,9.0,0.0,-7.0,222.35,141.5,1.0,2.0,43.02,2395.0,-1.01,-1.18,6.71,43.02,0.0,-1.0,0.0,0.06,2736.0,67.87,3.25,6.51,3.0,0.41,0.0,45.0,1.95,-0.32,-9.0,3.0,170.5,167.62,-0.02,2.0,164.76,-1.5,3.0,-2.03,2.15,1.34,2.0,84.0,1001.0,5.5,-1.13,43.02,3.0,13.0,-2.69,-0.38,0.0,0.0,2.64,0.0,0.0,0.03,1.0,0.0,2581.07,0.08,7.0,-6.71,2.0,125.56,-23.0,6.71,526.99,6.0,0.01,3.22,0.29,3.0,Very Low
42.5,0.31,950.07,3.0,0.01,0.45,0.22,0.18,-1.93,628.0,-2.41,92.0,86.0,157.5,0.04,2.96,1890.31,0.0,1.0,12.0,0.0,-5.0,260.15,84.75,1.0,2.0,0.95,1938.0,4.3,0.33,3.7,16.17,0.53,-1.0,0.04,0.32,2769.0,148.48,3.71,4.66,3.0,0.87,0.0,75.5,1.07,-1.52,-21.0,3.0,366.25,195.11,0.05,1.0,315.22,1.55,3.0,-1.76,6.7,3.94,3.0,180.0,1949.0,5.0,1.16,10.07,7.0,1.0,-2.35,-0.51,0.0,0.0,2.64,0.0,0.0,3.15,4.0,0.0,2520.42,1.35,4.0,-1.55,1.0,91.8,-18.0,1.7,712.55,7.0,0.15,4.59,2.54,2.0,Very Low
150.5,0.19,489.26,6.0,0.05,0.38,0.19,0.44,-0.5,1108.0,-0.64,-1879.0,-376.0,586.75,0.1,2.07,1775.44,0.75,3.0,16.0,0.0,-13.0,380.57,344.75,1.0,6.5,-1.86,913.0,-1.25,-0.72,-0.24,-1.78,0.53,0.0,0.12,0.42,4741.0,585.72,5.58,14.37,4.0,0.87,0.37,201.0,-0.75,0.83,-31.0,1.0,1658.25,291.5,0.22,1.0,1085.94,-9.51,4.0,-8.41,-0.73,2.7,1.0,535.5,1998.0,19.5,-7.28,-1.71,4.0,10.0,-10.98,-0.69,0.22,0.04,0.9,0.85,0.0,3.53,7.0,0.07,2317.94,0.48,20.25,-0.21,1.0,290.31,-43.0,-0.36,374.76,17.0,0.49,10.23,0.15,10.0,Very Low
272.0,-0.03,236.41,12.0,0.07,0.3,0.13,0.52,0.41,2603.0,0.84,-1879.0,-376.0,1120.5,0.11,2.56,1609.4,0.37,6.0,29.0,0.0,-16.0,635.38,587.5,1.0,14.0,7.44,170.0,-1.08,0.3,-0.7,-0.82,0.62,0.0,0.18,0.24,4741.0,855.05,9.72,26.39,8.0,1.0,0.14,551.5,-0.5,0.61,-31.0,32.0,1727.25,496.07,0.32,1.0,1192.5,-1.66,6.0,-3.94,0.2,3.27,1.0,919.5,3366.0,31.75,-1.29,0.99,4.0,10.0,-5.05,0.58,0.15,0.03,0.9,0.05,0.0,0.65,3.0,0.07,2061.36,1.22,27.75,-0.28,1.0,583.22,-43.0,-2.93,184.58,74.0,0.81,18.24,1.72,13.0,Low
505.0,0.06,1327.76,18.0,0.08,0.29,0.13,0.53,-0.11,2603.0,0.34,-1591.0,-1346.0,1355.0,0.12,4.53,1602.56,0.26,9.0,49.0,0.0,-24.0,611.94,894.25,2.0,15.0,23.86,170.0,-1.23,0.22,-0.39,-0.52,0.62,0.0,0.19,0.15,5746.0,1074.76,14.91,24.92,5.0,1.0,0.23,592.5,-0.65,0.73,-24.0,32.0,1827.75,477.77,0.36,7.0,1287.06,13.97,5.0,2.7,-0.53,5.8,2.0,945.5,4015.0,27.75,10.91,0.07,4.0,10.0,3.45,0.27,0.17,0.04,1.07,0.05,0.0,0.46,4.0,0.11,2052.6,0.04,36.5,-0.11,1.0,770.77,-38.0,-4.54,1036.65,74.0,0.86,16.17,0.13,16.5,Low
648.0,16.66,1857.7,19.0,0.09,0.48,0.07,1.14,0.35,4965.0,0.93,-2364.0,-2782.0,2287.25,0.26,7.91,1703.4,0.83,9.5,221.0,0.58,-38.0,612.71,1311.25,3.0,11.5,-1.25,-6878.0,0.02,-0.02,0.02,-1.25,0.58,0.29,0.17,0.11,9483.0,2905.31,32.38,30.79,4.0,0.96,0.1,1058.0,1.62,-0.02,-35.0,54.0,1522.5,473.31,0.41,9.0,1448.85,8.34,17.0,-0.8,0.86,10.24,3.0,760.0,6538.0,22.75,6.44,-0.34,4.0,11.0,-1.04,3.37,0.41,0.09,1.87,0.19,0.19,1.55,3.0,0.05,2205.09,1.03,36.5,0.43,4.0,1260.71,-44.0,-0.02,1435.05,104.0,0.75,15.94,2.07,16.0,Medium
1562.0,10.52,1310.29,28.5,0.08,0.71,0.21,0.91,1.34,4965.0,0.82,-3797.0,-6599.0,2854.0,0.21,9.03,888.21,1.57,14.0,221.0,0.0,-38.0,-1293.97,3103.0,4.0,10.0,-0.63,-8345.0,5.38,0.84,-0.1,-1.56,0.69,0.0,0.13,0.33,9483.0,3618.19,37.73,39.61,10.0,1.0,0.18,1452.0,2.46,-0.06,-40.0,108.0,1535.5,-995.88,0.34,4.0,1702.71,21.64,6.0,0.89,0.02,11.73,2.0,626.0,7415.0,20.0,16.65,-0.67,4.0,16.0,1.16,2.76,0.67,0.12,1.87,0.21,0.0,0.48,1.0,0.09,1154.07,0.05,46.0,-0.52,11.0,2611.9,-44.0,-0.88,1008.45,139.0,0.57,19.54,-0.4,21.0,High
767.0,18.44,737.74,17.0,0.08,0.34,0.25,0.44,2.26,1192.0,0.9,-3797.0,-6599.0,1662.0,0.09,6.27,287.32,0.77,9.0,184.0,0.0,-34.0,-2393.12,1599.5,4.0,5.0,-0.79,-8345.0,11.98,2.43,-0.27,-1.58,0.7,0.0,0.14,0.39,5459.0,2270.16,24.24,36.9,4.0,1.0,0.39,852.0,12.4,-1.26,-40.0,108.0,688.5,-1891.34,0.37,5.0,1212.47,16.93,4.0,0.07,1.06,7.94,1.0,310.0,7415.0,10.0,13.38,-1.12,4.0,16.0,0.09,3.07,0.27,0.05,0.83,0.47,0.0,3.35,1.0,0.15,363.54,-0.42,31.0,-0.49,5.0,1688.99,-60.0,-1.06,583.05,139.0,0.65,16.58,0.16,14.0,Very High
549.0,1.77,627.19,12.5,0.1,0.18,0.12,0.65,-0.18,1666.0,-0.84,-1113.0,-3473.0,1531.0,0.13,2.64,375.36,0.22,6.0,45.0,0.0,-48.0,-1021.31,1086.5,5.0,3.0,27.93,-1714.0,1.54,0.95,-1.72,3.42,0.7,0.0,0.16,0.15,3940.0,1092.14,15.06,17.44,9.0,0.94,0.15,783.0,1.72,0.64,-29.0,23.0,632.5,-820.39,0.5,1.0,618.9,-4.82,14.0,-1.48,1.28,3.29,2.0,272.0,2598.0,7.0,-3.87,5.35,6.0,11.0,-1.84,-0.83,0.11,0.03,0.83,0.05,0.0,0.6,1.0,0.07,467.28,0.68,15.0,-1.48,5.0,1146.36,-60.0,-5.31,503.81,43.0,0.83,9.06,0.18,6.0,Medium
732.0,0.46,543.84,12.0,0.06,0.33,0.27,0.33,-0.13,1666.0,-1.33,-629.0,-4244.0,855.0,0.08,-0.89,350.17,0.67,6.0,36.0,0.0,-48.0,-574.93,1384.0,2.0,2.0,-1.99,-1071.0,1.57,1.07,0.03,-1.84,0.68,0.0,0.1,0.43,1917.0,683.0,15.45,14.42,3.0,0.89,0.51,375.0,2.33,-0.2,-29.0,23.0,629.5,-442.49,0.27,2.0,602.96,-5.52,4.0,-2.48,1.78,-1.16,2.0,272.0,2598.0,4.0,-4.25,-1.78,3.0,10.0,-3.22,-0.71,0.28,0.06,0.79,0.85,0.0,-0.52,3.0,0.26,454.99,-0.65,13.0,0.07,3.0,1131.17,-58.0,-0.09,418.56,22.0,0.45,9.37,1.34,6.0,Low
523.0,0.06,238.07,14.5,0.07,0.26,0.3,0.17,-0.48,1072.0,0.44,-1380.0,-4244.0,874.0,0.04,-3.18,774.39,0.52,7.0,17.0,0.0,-38.0,-804.35,1651.5,1.0,3.0,-1.97,-490.0,1.11,-0.19,0.87,-1.2,0.68,0.0,0.12,0.47,3142.0,785.48,11.51,21.98,4.0,1.0,0.63,358.0,-0.73,0.96,-28.0,14.0,1007.0,-603.27,0.3,2.0,585.05,5.78,4.0,-2.32,1.58,-4.24,1.0,464.0,1557.0,5.5,4.33,-1.88,6.0,1.0,-3.09,-0.66,0.0,0.15,0.68,0.88,0.0,0.4,4.0,0.25,1032.52,-1.02,15.0,0.06,2.0,1144.07,-58.0,-0.02,178.56,71.0,0.47,7.65,0.35,8.0,Medium
579.0,0.63,-546.41,13.5,0.12,0.32,0.2,0.26,0.17,528.0,0.75,-4855.0,-3621.0,1130.0,0.06,-1.26,1298.65,0.55,7.0,20.0,0.0,-36.0,-1469.44,1457.5,4.0,5.0,5.1,-2644.0,-0.2,-0.9,0.54,-1.4,0.65,0.0,0.2,0.28,6817.0,1230.21,10.39,19.25,4.0,1.0,0.24,465.0,2.8,0.26,-16.0,24.0,1276.0,-1130.93,0.5,1.0,1159.54,16.98,5.0,2.81,0.56,-1.63,5.0,652.0,1914.0,10.5,13.07,1.16,6.0,6.0,3.65,-0.6,0.0,0.07,0.91,0.14,0.0,4.87,5.0,0.03,1687.37,0.28,24.0,-1.39,1.0,964.44,-23.0,-2.55,-420.54,71.0,0.85,8.7,-0.73,11.0,Very Low
771.0,1.44,-1508.2,19.0,0.11,0.96,0.12,1.13,0.98,5215.0,1.13,-6167.0,-3621.0,1654.0,0.26,8.52,1337.06,1.81,9.5,85.0,0.37,-49.0,-852.14,2373.25,1.0,12.0,-1.19,-5038.0,0.18,-0.57,0.34,-1.2,0.65,0.26,0.17,0.21,6817.0,2014.27,20.8,39.8,3.0,1.0,0.19,842.5,0.26,-0.54,-16.0,79.0,1430.5,-658.26,0.48,8.0,1767.79,41.98,5.0,14.29,0.8,11.03,1.0,637.0,1914.0,23.75,32.43,-1.25,3.0,13.0,18.5,0.45,0.89,0.2,2.81,0.41,0.0,1.59,1.0,0.12,1730.85,1.08,48.75,-0.03,5.0,1835.11,-23.0,-0.35,-1165.06,162.0,0.75,22.48,0.48,19.5,Low
,,,,,,,,,,,,,,,,,,,,,,,,,,,,,,,,,,,,,,,,,,,,,,,,,,,,,,,,,,,,,,,,,,,,,,,,,,,,,,,,,,,,,,,,,,
462.5,-0.15,-332.71,25.0,0.09,0.46,0.17,0.88,-0.43,2849.0,-0.71,-4815.0,-4388.0,1109.5,0.22,-2.67,1313.41,0.67,12.0,39.0,0.0,-55.0,-0.57,1099.75,3.0,8.0,2.54,-8254.0,-0.22,-0.73,-0.89,-0.6,0.71,0.0,0.17,0.27,5278.0,2134.52,20.23,30.59,7.0,1.0,0.12,521.0,1.35,-1.92,-39.0,28.0,1016.0,-0.44,0.35,2.0,1510.99,-4.39,14.0,-2.24,1.53,-3.51,2.0,544.0,3008.0,22.0,-3.33,0.64,3.0,11.0,-2.95,-0.67,0.21,0.04,1.36,0.1,0.0,5.97,6.0,0.07,1730.5,-0.95,18.5,-0.33,1.0,1186.77,-102.0,-1.96,-252.52,64.0,0.68,14.91,2.1,9.5,Very High
442.0,-0.11,-1207.07,25.0,0.05,0.39,0.25,0.25,-0.01,2849.0,-0.01,-4815.0,-4388.0,1221.0,0.07,-4.15,962.36,0.54,13.0,39.0,0.0,-55.0,60.45,969.0,2.0,10.0,-1.48,-8254.0,-0.18,-0.5,1.19,-0.12,0.71,0.0,0.08,0.41,5051.0,2081.64,19.69,28.62,3.0,1.0,0.42,552.0,1.64,-1.6,-39.0,28.0,988.5,43.99,0.17,2.0,1175.4,-17.61,3.0,-4.46,1.25,-5.7,7.0,515.0,1850.0,20.0,-12.82,-0.84,3.0,11.0,-6.13,-0.45,0.0,0.0,1.19,0.79,0.0,5.38,6.0,0.0,1322.43,-1.08,24.5,0.89,3.0,1180.91,-102.0,0.69,-878.42,64.0,0.29,14.91,2.43,12.0,Very High
502.0,-0.8,-1431.21,16.0,0.0,0.0,0.0,0.0,-1.06,907.0,-0.6,-2142.0,-2864.0,482.5,0.0,-0.33,832.79,0.0,7.0,23.0,0.0,-21.0,-168.21,937.0,3.0,5.0,-3.0,-155.0,1.6,0.16,0.0,-3.0,0.0,0.0,0.0,0.0,2085.0,355.38,10.29,9.36,0.0,0.0,0.0,237.0,-1.08,-0.45,-34.0,7.0,671.0,-120.03,0.0,3.0,394.02,-20.1,0.0,-3.75,0.47,-0.46,5.0,332.0,-550.0,10.0,-14.34,-3.0,0.0,8.0,-5.25,0.34,0.0,0.0,0.0,0.0,0.0,1.41,1.0,0.0,1167.04,-1.3,11.0,0.0,4.0,829.32,-45.0,0.0,-1021.3,2.0,0.0,7.63,1.43,6.0,Medium
570.0,-0.76,-1009.65,21.5,0.0,0.0,0.0,0.0,0.09,3480.0,0.8,-2574.0,-3601.0,910.5,0.0,-1.88,1006.2,0.0,11.0,29.0,0.0,-34.0,-732.04,1266.5,4.0,5.0,-3.0,-2987.0,1.32,1.64,0.0,-3.0,0.0,0.0,0.0,0.0,6259.0,1497.01,15.17,21.72,0.0,0.0,0.0,432.0,2.01,0.34,-37.0,32.0,1072.0,-524.93,0.0,4.0,1294.31,-11.69,0.0,-0.71,0.09,-2.62,5.0,533.0,2753.0,9.5,-8.39,-3.0,0.0,8.0,-0.99,0.2,0.0,0.0,0.0,0.0,0.0,1.86,4.0,0.0,1403.2,0.17,21.5,0.0,1.0,1111.81,-57.0,0.0,-723.99,47.0,0.0,12.15,1.67,11.0,Medium
853.0,-0.83,706.76,23.5,0.01,0.41,0.17,0.07,-0.27,3480.0,-0.07,-2574.0,-3601.0,1851.5,0.02,0.32,1082.37,0.0,12.0,31.0,0.0,-34.0,172.82,1852.0,1.0,11.0,11.94,-2987.0,-0.28,0.06,6.57,43.2,0.77,0.0,0.02,0.22,6259.0,1771.98,16.58,36.93,5.0,1.0,0.0,955.0,-1.19,0.08,-37.0,39.0,3355.5,126.39,0.05,5.0,2018.9,19.33,5.0,5.83,-0.74,0.44,1.0,1683.0,5094.0,23.0,14.13,11.0,5.0,8.0,7.97,-0.2,0.0,0.0,2.95,0.0,0.0,0.24,1.0,0.0,1479.97,-0.54,51.5,3.53,1.0,1388.84,-57.0,3.68,516.88,96.0,0.06,16.88,-0.02,26.0,Low
298.0,3.4,1414.27,6.0,0.06,0.48,0.27,0.27,0.99,2719.0,0.96,-1480.0,-235.0,374.5,0.07,1.09,1152.45,0.54,2.0,31.0,0.0,-33.0,744.56,643.0,1.0,6.0,-1.91,-2002.0,-0.08,0.55,3.7,18.06,0.77,0.0,0.1,0.44,5117.0,1010.8,9.49,29.0,4.0,1.0,0.48,128.0,0.55,-0.34,-15.0,39.0,1500.5,561.29,0.23,6.0,1242.6,21.82,4.0,5.11,-0.4,1.44,1.0,548.0,5094.0,16.5,16.45,-1.4,5.0,8.0,6.78,0.08,0.0,0.0,2.95,0.87,0.0,4.59,1.0,0.0,1528.76,1.2,46.0,0.47,1.0,557.0,-10.0,0.24,1066.14,96.0,0.4,13.19,1.12,9.0,Medium
104.0,11.48,562.36,2.0,0.1,0.35,0.16,0.69,-0.88,784.0,0.68,40.0,14.0,97.0,0.16,-0.33,1356.92,0.43,1.0,13.0,0.0,-4.0,248.49,287.5,5.0,1.0,3.71,1541.0,2.1,0.72,-0.64,-0.48,0.62,0.0,0.18,0.27,1878.0,77.74,2.39,2.47,4.0,0.98,0.07,28.0,-0.68,-1.35,-7.0,5.0,559.5,189.26,0.42,1.0,402.16,-0.74,3.0,-0.37,4.16,-0.43,3.0,277.0,1445.0,1.0,-0.56,2.22,3.0,1.0,-0.49,2.83,0.21,0.06,1.24,0.09,0.0,0.99,1.0,0.02,1781.53,0.96,2.0,-1.8,1.0,193.83,-7.0,-2.29,428.33,12.0,0.74,2.1,-0.06,1.0,Low
79.0,3.94,779.49,9.75,0.11,0.23,0.05,1.12,0.93,2051.0,1.75,-1683.0,-6428.0,289.0,0.26,4.03,1428.3,0.43,3.0,67.0,0.68,-37.0,-92.61,205.0,3.0,2.0,-1.35,-3996.0,1.27,0.81,-0.05,-1.35,0.59,0.35,0.18,0.05,8885.0,2102.19,17.6,29.43,4.0,0.84,0.05,99.5,0.53,0.48,-24.0,37.0,1293.75,-70.79,0.49,5.0,1139.92,16.01,5.0,2.28,2.08,5.27,1.0,173.0,4412.0,6.0,12.24,0.1,4.0,11.0,2.99,1.53,0.2,0.04,1.42,0.1,0.71,3.54,5.0,0.03,1868.53,-3.41,26.0,-0.1,1.0,1200.88,-20.0,0.02,595.84,109.0,0.75,10.81,13.45,3.0,Low
681.0,1.5,-275.37,24.0,0.09,0.51,0.2,0.87,-0.51,3547.0,-0.48,-4110.0,-6884.0,2321.0,0.21,-3.47,1052.19,0.75,12.0,67.0,0.0,-85.0,-279.51,1424.5,2.0,13.0,0.25,-8296.0,-0.23,0.13,-0.63,-0.89,0.66,0.0,0.15,0.31,8885.0,3050.52,26.94,58.64,7.0,0.93,0.21,1247.0,-1.29,-0.42,-63.0,37.0,4174.5,-211.79,0.37,1.0,2187.47,-7.75,4.0,-6.52,0.12,-4.58,2.0,1895.0,4412.0,24.5,-5.87,-0.46,4.0,13.0,-8.6,-0.02,0.41,0.09,1.42,0.11,0.0,1.36,2.0,0.1,1388.6,-1.51,60.0,-0.9,1.0,1748.53,-152.0,-1.41,-208.66,109.0,0.62,23.09,2.94,31.0,Medium
310.0,5.28,-1364.43,13.0,0.07,0.32,0.18,0.61,-1.32,3547.0,-1.59,-4110.0,-6884.0,611.0,0.15,-7.74,1016.2,0.24,6.0,8.0,0.0,-85.0,17.35,589.0,1.0,6.0,0.43,-8296.0,0.59,0.55,-1.17,-0.19,0.66,0.0,0.16,0.33,6511.0,2208.9,17.85,40.98,3.0,0.93,0.18,163.0,1.73,-2.04,-63.0,8.0,1487.0,13.15,0.31,1.0,1226.82,-27.25,9.0,-9.81,1.64,-10.21,1.0,441.0,2974.0,18.0,-20.65,-0.52,4.0,14.0,-12.95,-2.27,0.12,0.02,0.95,0.04,0.0,6.73,2.0,0.11,1341.1,-1.86,33.5,-0.58,2.0,1336.28,-152.0,-1.55,-1033.87,34.0,0.67,18.21,6.45,13.0,High
265.0,0.19,-476.23,9.0,0.09,0.19,0.08,0.9,1.25,1030.0,1.47,-1340.0,-377.0,148.5,0.21,0.22,1385.44,0.38,4.0,18.0,0.74,-9.0,204.56,519.0,1.0,4.0,-1.54,897.0,1.17,1.2,0.19,-1.51,0.51,0.21,0.19,0.04,2302.0,218.76,5.99,14.2,4.0,0.86,0.05,64.0,0.17,-1.75,-11.0,26.0,524.0,156.61,0.4,3.0,611.7,1.99,3.0,0.96,1.95,0.29,1.0,260.0,1099.0,8.0,1.52,0.04,4.0,21.0,1.25,0.84,0.16,0.03,1.19,0.08,0.62,5.05,1.0,0.03,1809.56,0.51,12.0,-1.08,1.0,363.07,-16.0,-0.21,-364.61,45.0,0.8,8.51,-0.59,6.0,Medium
282.0,15.79,-453.2,13.0,0.11,0.18,0.06,1.19,-0.36,4056.0,-2.1,-9201.0,-11476.0,721.0,0.28,-0.58,1146.86,0.24,7.0,68.0,0.66,-143.0,-138.94,568.0,3.0,6.0,-0.44,-4418.0,1.48,-2.64,0.03,-0.47,0.65,0.41,0.17,0.04,8522.0,1524.61,23.57,42.64,3.0,0.82,0.06,244.0,11.7,-0.58,-36.0,26.0,1370.0,-106.38,0.47,6.0,1550.48,-12.39,3.0,2.41,4.44,-0.76,1.0,629.0,2769.0,12.5,-9.49,1.84,3.0,14.0,3.15,-3.16,0.1,0.02,1.54,0.06,0.8,6.49,9.0,0.03,1497.94,-3.16,18.0,1.42,2.0,1978.87,-179.0,0.05,-346.98,45.0,0.74,10.62,14.73,8.0,Low
833.0,4.4,546.69,25.0,0.07,0.64,0.26,0.69,-1.13,4667.0,-0.01,-9201.0,-11476.0,3714.5,0.18,-0.14,667.82,1.3,13.0,91.0,0.0,-143.0,95.73,1547.0,3.0,11.0,-1.84,-9155.0,2.63,0.51,-0.03,-1.8,0.68,0.0,0.11,0.37,9886.0,3808.66,31.43,73.79,3.0,0.89,0.5,1914.0,1.47,-0.47,-96.0,54.0,3152.0,71.43,0.29,7.0,3250.68,16.36,3.0,-0.7,0.41,-0.18,1.0,1551.0,11103.0,22.5,12.21,-1.78,3.0,12.0,-0.93,-0.9,0.64,0.14,1.54,0.73,0.0,0.51,12.0,0.14,894.97,-1.55,81.5,-0.18,1.0,2518.24,-179.0,-0.26,407.93,201.0,0.43,24.71,5.04,37.0,Very Low
598.0,2.25,1601.0,20.0,0.02,0.27,0.16,0.09,-1.25,4667.0,1.08,-4557.0,-4276.0,1999.0,0.03,0.16,646.95,0.0,10.0,91.0,0.0,-44.0,50.97,1286.5,3.0,9.0,3.59,-9155.0,3.35,0.62,2.83,6.86,0.68,0.0,0.03,0.27,9886.0,3547.17,22.4,54.51,2.0,0.89,0.0,1002.0,1.14,-0.62,-96.0,54.0,3043.5,36.55,0.06,5.0,2846.64,32.68,2.0,-0.42,0.64,0.22,1.0,1101.0,11103.0,22.5,23.43,5.26,2.0,12.0,-0.59,1.19,0.0,0.0,1.15,0.0,0.0,1.35,2.0,0.0,902.2,0.49,69.0,2.6,2.0,1670.6,-40.0,2.35,1148.03,201.0,0.1,23.97,0.67,27.0,High
313.5,2.27,631.37,9.0,0.0,0.0,0.0,0.0,-0.54,1090.0,-0.6,-1200.0,-2689.0,598.0,0.0,-0.17,876.48,0.0,4.0,33.0,0.0,-26.0,-121.45,627.25,3.0,5.0,-3.0,-780.0,0.04,1.78,0.0,-3.0,0.0,0.0,0.0,0.0,2916.0,582.62,9.42,22.57,0.0,0.0,0.0,310.0,3.26,-0.78,-23.0,21.0,946.75,-86.08,0.0,5.0,1443.45,-1.49,0.0,0.84,-0.44,-0.24,3.0,464.0,6682.0,10.0,-1.05,-3.0,0.0,8.0,1.19,0.45,0.0,0.0,0.0,0.0,0.0,2.88,1.0,0.0,1236.67,-1.13,31.5,0.0,1.0,615.34,-54.0,0.0,447.48,40.0,0.0,9.43,2.57,12.0,High
321.0,2.04,267.57,10.0,0.0,0.0,0.0,0.0,0.05,1090.0,-0.7,-1200.0,-902.0,512.0,0.0,1.92,820.67,0.0,5.0,33.0,0.0,-10.0,-29.69,613.0,3.0,6.0,-3.0,-167.0,0.14,0.17,0.0,-3.0,0.0,0.0,0.0,0.0,2386.0,421.46,7.98,21.05,0.0,0.0,0.0,255.0,-0.14,-0.05,-23.0,21.0,956.5,-21.08,0.0,8.0,694.42,-1.07,0.0,-0.57,0.06,2.71,2.0,478.0,2322.0,10.5,-0.76,-3.0,0.0,6.0,-0.8,1.23,0.0,0.0,0.0,0.0,0.0,0.82,1.0,0.0,1155.63,0.21,27.0,0.0,4.0,456.97,-54.0,0.0,190.01,40.0,0.0,9.15,-0.7,12.0,Very High
216.0,0.88,420.24,8.0,0.0,0.0,0.0,0.0,1.08,1002.0,0.12,-840.0,-903.0,466.5,0.0,-0.15,856.19,0.0,3.0,20.0,0.0,-17.0,-339.7,429.0,5.0,2.0,-3.0,-167.0,2.62,-0.19,0.0,-3.0,0.0,0.0,0.0,0.0,2421.0,400.72,6.62,12.72,0.0,0.0,0.0,205.0,-0.05,-0.37,-11.0,21.0,659.5,-241.24,0.0,1.0,497.69,3.39,0.0,-1.23,1.0,-0.21,3.0,327.0,1507.0,5.5,2.41,-3.0,0.0,7.0,-1.73,0.31,0.0,0.0,0.0,0.0,0.0,1.64,5.0,0.0,1205.65,1.21,12.0,0.0,5.0,374.7,-38.0,0.0,298.43,40.0,0.0,5.53,1.47,6.0,Very High
307.0,1.81,396.99,6.0,0.02,0.57,0.17,0.12,0.77,1406.0,0.44,-3657.0,-1979.0,318.5,0.04,-0.19,955.01,0.0,3.0,35.0,0.0,-26.0,-154.27,723.0,11.0,2.0,6.93,-3598.0,0.78,-0.73,6.47,43.38,0.73,0.0,0.02,0.24,4510.0,1173.89,11.21,13.62,2.0,0.89,0.0,187.0,3.18,-1.28,-8.0,15.0,718.0,-110.09,0.06,3.0,1095.75,2.85,2.0,0.19,0.47,-0.27,5.0,330.0,3269.0,5.0,2.03,6.85,2.0,8.0,0.27,0.92,0.0,0.0,4.22,0.0,0.0,6.32,6.0,0.0,1338.31,0.39,13.0,2.9,6.0,624.15,-26.0,2.98,283.29,40.0,0.07,4.67,0.29,7.0,Very High
603.0,-0.55,-328.12,25.5,0.09,1.04,0.6,0.76,-0.72,1739.0,-0.66,-4367.0,-3992.0,2269.0,0.21,-5.0,1001.39,1.25,13.0,35.0,0.0,-40.0,169.76,1228.0,1.0,6.0,-1.8,-3598.0,-0.08,-0.45,1.77,3.12,4.22,0.0,0.09,0.38,5859.0,1931.33,17.64,25.99,3.0,0.89,0.49,1160.0,-0.53,-0.27,-31.0,20.0,2401.0,124.15,0.32,1.0,1803.54,-12.84,3.0,-2.8,0.22,-6.84,5.0,1158.0,3269.0,14.0,-9.39,32.02,3.0,8.0,-3.82,0.18,0.51,0.07,4.22,0.73,0.0,0.06,5.0,0.19,1369.24,-1.21,27.5,5.26,1.0,1045.64,-82.0,0.24,-239.97,41.0,0.35,10.48,2.16,11.0,Very High
344.5,-0.73,-1618.25,21.75,0.13,0.8,0.57,1.73,-0.46,1739.0,-0.64,-4497.0,-3992.0,1426.5,0.43,-7.36,1022.99,0.9,11.5,18.0,0.0,-40.0,219.85,641.75,2.0,7.5,1.8,-3236.0,-0.13,0.22,0.09,1.48,4.22,0.0,0.14,0.21,5859.0,1600.33,14.43,28.61,6.0,0.87,0.08,735.5,-0.3,0.09,-37.0,20.0,1557.25,165.45,0.52,2.0,1407.08,-20.04,20.0,-7.42,-0.43,-9.77,2.0,762.5,1585.0,14.75,-15.08,36.22,4.0,9.0,-9.86,-0.1,0.16,0.04,4.2,0.16,0.0,0.81,9.0,0.05,1359.32,-1.54,43.75,5.89,9.0,1076.86,-84.0,-1.26,-1217.86,41.0,0.55,11.92,2.6,12.0,High
609.0,-0.55,-1773.97,16.0,0.12,0.22,0.11,2.02,-0.52,3524.0,-0.68,-4497.0,-8240.0,1187.0,0.48,-2.96,972.13,0.16,9.0,24.0,0.52,-30.0,-485.84,1429.5,6.0,8.0,3.39,-8958.0,-0.17,-0.21,-2.01,3.31,0.77,0.31,0.13,0.05,7989.0,2688.72,12.12,31.94,3.0,0.72,0.15,519.0,0.85,-1.47,-37.0,15.0,1128.0,-370.05,0.5,3.0,978.67,-25.73,7.0,-6.56,-0.79,-3.89,2.0,563.0,1162.0,16.5,-19.6,0.24,3.0,6.0,-8.61,0.15,0.04,0.01,2.18,0.04,1.27,4.7,1.0,0.07,1276.33,-1.65,49.0,0.82,1.0,1997.26,-100.0,2.01,-1351.16,37.0,0.55,12.54,3.47,13.0,Very High
744.0,-0.83,-723.73,22.0,0.11,0.58,0.12,1.37,-0.04,3524.0,-0.44,-3938.0,-8240.0,3582.0,0.33,-3.72,899.06,1.22,11.0,24.0,0.52,-36.0,-1025.54,1562.5,5.0,10.0,-1.72,-8958.0,0.47,0.24,0.16,-1.71,0.64,0.25,0.17,0.13,7989.0,3487.35,14.34,33.5,3.0,0.84,0.22,1779.0,0.9,-0.9,-39.0,53.0,1568.5,-781.11,0.46,1.0,1284.64,-22.03,4.0,-2.86,-0.51,-4.88,1.0,870.0,3483.0,20.0,-16.78,-1.35,3.0,7.0,-3.76,0.06,0.49,0.11,2.17,0.27,0.72,0.8,8.0,0.12,1180.39,-0.96,52.5,-0.13,1.0,1950.31,-100.0,-0.16,-551.24,53.0,0.7,15.34,2.74,21.0,Very High
477.0,0.91,-24.59,8.5,0.09,0.14,0.08,0.92,-0.63,3233.0,-1.48,-1905.0,-2711.0,424.5,0.22,-1.92,1051.22,0.29,4.0,24.0,0.74,-36.0,-758.84,949.0,5.0,3.0,-1.34,-7380.0,4.5,1.79,0.05,-1.39,0.62,0.25,0.19,0.03,6574.0,2270.91,10.91,19.81,6.0,0.84,0.06,209.0,7.97,-1.24,-39.0,53.0,248.5,-580.99,0.38,2.0,719.62,-3.12,5.0,0.49,4.65,-2.51,6.0,119.0,3483.0,6.0,-2.39,1.27,6.0,9.0,0.64,-0.57,0.14,0.03,1.19,0.06,0.72,3.77,8.0,0.03,1373.02,0.92,8.0,1.0,9.0,809.06,-84.0,-0.03,-18.82,53.0,0.8,12.06,5.23,3.0,Very High
208.0,-1.34,-158.87,7.0,0.11,0.36,0.12,0.67,0.14,266.0,0.44,-350.0,-1544.0,159.5,0.16,0.65,1222.1,0.74,3.0,7.0,0.75,-5.0,-300.11,706.5,4.0,1.0,-1.44,1327.0,0.63,1.13,-0.29,-1.44,0.67,0.28,0.21,0.08,1814.0,109.04,3.71,1.87,3.0,1.0,0.18,71.0,3.02,-0.48,-4.0,7.0,109.0,-227.4,0.44,2.0,78.91,2.17,3.0,1.47,0.16,0.86,3.0,54.0,190.0,2.0,1.64,-1.07,3.0,2.0,1.94,-0.13,0.31,0.07,1.11,0.16,0.0,-0.54,1.0,0.07,1612.84,-0.82,2.0,0.57,1.0,414.15,-2.0,0.29,-120.38,7.0,0.85,2.01,-0.33,1.0,Very High
51.0,-1.44,-85.93,7.0,0.15,0.18,0.12,0.4,0.15,266.0,0.13,-264.0,-189.0,149.0,0.1,-0.2,1212.33,0.26,4.0,6.0,0.82,-6.0,45.75,99.0,1.0,1.0,-0.25,1404.0,-0.25,0.1,0.11,-0.3,0.73,0.28,0.23,0.04,1889.0,109.37,3.78,1.68,5.0,1.0,0.1,78.0,-1.37,0.09,-4.0,7.0,237.0,33.96,0.58,1.0,121.94,0.72,3.0,0.35,-0.67,-0.27,6.0,121.0,195.0,4.0,0.54,0.69,5.0,1.0,0.47,0.2,0.12,0.03,0.8,0.05,0.0,-0.53,1.0,0.05,1632.94,0.04,3.0,-1.32,1.0,92.7,-3.0,-0.12,-63.8,5.0,0.91,2.66,0.39,1.0,Very High
83.0,2.29,30.92,6.0,0.15,0.1,0.1,0.47,-0.87,1119.0,1.03,-668.0,-55.0,151.5,0.12,0.57,1276.61,0.13,2.0,23.0,0.84,-6.0,236.65,342.5,1.0,3.0,-0.22,1290.0,1.02,-0.83,-0.37,-0.15,0.73,0.26,0.22,0.02,2400.0,155.9,7.2,8.65,2.0,0.95,0.08,76.0,4.57,0.68,-17.0,7.0,101.0,178.39,0.61,1.0,166.78,4.61,8.0,-1.62,-0.33,0.76,1.0,48.0,536.0,5.0,3.47,4.74,2.0,5.0,-2.14,1.76,0.07,0.02,0.7,0.03,0.24,3.87,1.0,0.03,1693.46,1.56,10.5,-2.15,3.0,290.04,-6.0,0.27,23.31,25.0,0.89,5.14,1.66,3.0,High
275.0,-0.07,39.86,10.5,0.1,0.15,0.16,0.65,0.67,2255.0,-0.08,-692.0,-103.0,224.0,0.15,1.84,1351.63,0.22,5.0,23.0,0.79,-18.0,624.53,592.0,2.0,6.0,-0.8,995.0,0.0,-0.17,-0.11,-0.93,0.7,0.24,0.2,0.03,2527.0,293.89,9.42,15.75,3.0,0.92,0.32,107.0,-0.13,0.56,-17.0,29.0,328.5,478.16,0.45,3.0,330.26,10.35,3.0,1.98,-0.88,2.41,2.0,152.0,831.0,12.0,7.93,-1.59,3.0,9.0,2.59,-0.09,0.11,0.02,0.94,0.04,0.37,0.71,1.0,0.09,1765.39,1.35,25.0,0.38,4.0,555.02,-23.0,0.11,30.52,36.0,0.85,11.83,1.3,12.0,High
293.0,-0.35,225.79,11.0,0.08,0.15,0.04,0.91,0.53,2255.0,0.35,-692.0,-208.0,397.5,0.21,0.75,1388.01,0.3,6.0,23.0,0.76,-18.0,789.86,554.5,2.0,6.0,-1.49,995.0,-0.08,-0.57,-0.14,-1.52,0.41,0.24,0.19,0.03,2838.0,331.84,8.76,15.9,3.0,0.85,0.07,198.0,-0.47,0.25,-17.0,29.0,539.0,604.74,0.34,2.0,390.88,8.52,3.0,3.49,-0.78,0.98,2.0,235.0,996.0,12.5,6.53,-0.74,3.0,9.0,4.56,-0.14,0.15,0.03,1.09,0.07,0.68,0.38,2.0,0.03,1812.91,0.86,26.0,-0.19,1.0,532.78,-23.0,0.17,172.87,36.0,0.8,11.09,0.66,7.0,Medium
148.5,1.08,604.7,6.0,0.09,0.08,0.03,1.12,-0.68,1916.0,0.5,-233.0,-208.0,165.0,0.26,1.86,1433.42,0.1,3.0,23.0,0.71,-9.0,638.8,319.0,1.0,3.0,-0.75,1033.0,-0.36,0.13,-0.33,-0.82,0.42,0.3,0.18,0.02,2838.0,227.59,5.66,10.69,3.0,0.79,0.02,67.5,-0.24,-0.43,-11.0,15.0,391.25,488.3,0.39,2.0,340.82,11.15,3.0,3.63,-1.07,2.44,1.0,181.0,1288.0,6.0,8.52,1.43,3.0,1.0,4.75,0.84,0.05,0.01,1.29,0.02,0.96,4.22,2.0,0.01,1875.23,0.5,17.0,-1.58,1.0,295.46,-7.0,0.21,462.23,33.0,0.75,7.11,2.27,7.0,Medium
151.0,-0.91,857.33,4.75,0.1,0.05,0.01,1.23,0.73,821.0,0.32,323.0,146.0,87.25,0.29,1.55,1492.27,0.09,2.0,9.0,0.71,-4.0,419.85,326.75,1.0,3.0,-1.15,1776.0,-0.79,-0.18,-0.26,-1.56,0.42,0.39,0.17,0.01,2289.0,76.38,3.07,10.66,3.0,0.75,0.01,44.0,-1.41,0.96,-2.0,15.0,628.0,319.26,0.4,2.0,309.99,9.38,3.0,3.56,-1.22,2.03,1.0,299.0,1329.0,8.75,7.13,-0.45,3.0,15.0,4.68,0.22,0.03,0.01,1.3,0.02,1.13,3.86,1.0,0.01,1962.44,-0.02,19.0,0.71,1.0,172.82,-5.0,0.25,651.93,29.0,0.73,5.22,-1.15,9.0,Medium
102.0,2.33,502.58,3.0,0.09,0.01,0.0,1.27,0.02,821.0,1.23,-82.0,-61.0,65.0,0.3,-0.11,1526.83,0.01,1.0,9.0,0.71,-4.0,172.3,195.5,3.0,1.0,17.55,1829.0,-0.2,0.34,1.01,2.39,0.41,0.38,0.17,0.0,2289.0,67.7,2.66,6.37,3.0,0.72,0.0,27.0,-1.4,0.67,-5.0,5.0,957.5,131.92,0.39,3.0,479.57,-0.16,3.0,-0.21,1.26,-0.15,3.0,406.0,1329.0,2.5,-0.12,13.33,4.0,12.0,-0.28,1.49,0.0,0.0,1.3,0.0,1.25,4.63,1.0,0.0,1994.22,1.38,7.0,2.89,1.0,175.04,-9.0,-4.42,384.79,18.0,0.72,2.29,1.81,3.0,Medium
,,,,,,,,,,,,,,,,,,,,,,,,,,,,,,,,,,,,,,,,,,,,,,,,,,,,,,,,,,,,,,,,,,,,,,,,,,,,,,,,,,,,,,,,,,
797.0,0.16,-1113.18,14.0,0.09,0.31,0.07,1.29,-0.52,890.0,-0.37,-3577.0,-4263.0,1436.5,0.31,5.18,1249.55,0.48,7.0,37.0,0.61,-27.0,-1642.93,1687.5,1.0,10.0,-0.91,56.0,-1.09,0.4,-0.38,-0.88,0.56,0.25,0.17,0.07,4792.0,1112.72,13.97,30.27,4.0,0.85,0.11,678.0,-0.74,0.98,-16.0,36.0,2044.25,-1266.42,0.39,1.0,1409.47,30.28,5.0,10.19,-0.27,6.72,1.0,1040.0,1930.0,25.25,23.34,-0.17,4.0,7.0,13.22,-0.24,0.23,0.05,1.77,0.11,0.67,0.32,1.0,0.05,1621.04,0.09,36.5,0.46,1.0,1261.53,-42.0,0.38,-858.08,87.0,0.71,14.89,-0.59,19.5,Medium
1079.0,-0.63,-457.27,26.5,0.09,0.37,0.08,0.8,0.68,1978.0,0.49,-3577.0,-3052.0,1215.0,0.19,-1.96,1218.53,0.34,13.0,36.0,0.65,-40.0,-539.72,1988.0,1.0,8.0,0.12,-576.0,-0.86,0.06,0.13,0.11,0.51,0.17,0.19,0.08,6368.0,1133.73,18.29,38.3,3.0,1.0,0.09,610.0,-1.14,1.13,-28.0,29.0,2749.5,-413.22,0.36,1.0,1794.93,-10.66,7.0,-3.19,-0.98,-2.56,1.0,1527.0,2838.0,32.0,-8.16,-0.47,3.0,7.0,-4.16,0.0,0.17,0.04,1.56,0.08,0.0,2.54,1.0,0.05,1591.55,-0.19,66.0,-0.22,1.0,1223.43,-62.0,-0.12,-350.09,70.0,0.82,17.13,-0.92,29.0,Medium
693.0,-0.16,1143.54,18.0,0.09,0.18,0.1,0.6,-0.05,2559.0,0.21,-479.0,-1510.0,806.5,0.14,-4.82,1240.89,0.05,9.0,15.0,0.84,-40.0,891.78,1737.5,1.0,6.0,6.74,-576.0,-0.99,0.16,-2.78,6.67,0.51,0.17,0.2,0.04,6368.0,857.39,13.24,19.66,3.0,1.0,0.14,409.0,-0.62,1.55,-28.0,0.0,1181.0,686.34,0.39,2.0,760.45,-31.68,6.0,-11.18,-1.23,-6.26,1.0,594.0,2838.0,12.0,-24.38,-0.71,4.0,14.0,-14.53,-0.74,0.03,0.01,0.71,0.01,0.0,9.13,1.0,0.05,1612.31,-0.66,33.0,-0.78,1.0,1119.34,-62.0,2.78,880.11,10.0,0.87,7.42,-0.8,17.0,Medium
607.0,0.47,749.38,8.0,0.11,0.21,0.12,0.83,-0.42,2559.0,-1.19,30.0,177.0,393.0,0.19,-1.82,1299.21,0.26,4.0,12.0,0.7,-23.0,1242.97,1134.5,1.0,7.0,-0.1,905.0,-0.69,0.55,1.14,-0.06,0.67,0.18,0.18,0.05,2607.0,316.38,6.97,17.7,3.0,0.86,0.14,198.0,-1.16,-0.07,-28.0,10.0,1091.5,961.67,0.5,2.0,615.95,-12.96,3.0,-4.25,-0.03,-2.35,1.0,379.0,2049.0,14.0,-10.03,0.3,3.0,13.0,-5.49,-0.33,0.06,0.01,1.33,0.05,0.64,0.12,1.0,0.09,1679.25,0.05,20.5,-0.9,1.0,654.05,-54.0,-1.12,579.78,3.0,0.82,9.81,-1.24,5.0,Low
188.0,0.69,167.54,7.0,0.14,0.26,0.07,1.2,0.29,1628.0,-0.9,-209.0,-163.0,249.0,0.28,-0.91,1361.52,0.43,4.0,16.0,0.65,-15.0,436.31,483.5,1.0,4.0,-1.13,1162.0,-0.67,0.75,-0.55,-1.16,0.67,0.37,0.17,0.06,2667.0,243.6,5.45,3.31,3.0,0.84,0.08,126.0,0.14,0.48,-10.0,10.0,168.0,334.05,0.58,1.0,192.38,-1.07,5.0,-0.57,0.2,-1.18,1.0,84.0,673.0,7.0,-0.82,0.72,3.0,1.0,-0.75,0.01,0.12,0.03,1.56,0.1,0.73,2.17,1.0,0.04,1778.31,1.27,4.0,-1.03,1.0,442.15,-11.0,0.57,128.27,5.0,0.73,5.08,0.97,2.0,Low
140.0,0.91,-243.65,6.0,0.11,0.1,0.1,1.46,-1.73,2200.0,-2.35,-3184.0,-622.0,338.0,0.34,-0.8,1310.64,0.19,3.0,16.0,0.65,-25.0,374.97,372.0,5.0,3.0,-1.26,600.0,4.59,-2.02,-0.22,-1.23,0.65,0.37,0.16,0.02,3565.0,459.23,7.43,19.49,4.0,0.73,0.19,173.0,3.71,0.68,-30.0,5.0,277.0,287.09,0.49,4.0,751.74,-9.66,3.0,-3.34,4.37,-1.04,1.0,141.0,977.0,6.0,-7.4,-1.48,4.0,7.0,-4.37,-0.91,0.1,0.02,1.59,0.04,1.21,3.16,1.0,0.06,1711.86,1.74,8.0,0.39,1.0,525.04,-79.0,0.26,-186.55,6.0,0.67,6.01,2.69,4.0,Very Low
636.0,-0.18,-345.93,16.0,0.1,0.39,0.06,1.17,0.3,2583.0,0.11,-3184.0,-2644.0,1104.5,0.26,0.14,1236.63,0.77,8.0,28.0,0.65,-34.0,320.39,1041.0,1.0,7.0,-1.68,-747.0,-0.55,0.19,-0.15,-1.7,0.62,0.33,0.17,0.09,5326.0,1254.8,12.98,35.1,4.0,0.87,0.06,593.0,-0.36,0.64,-30.0,32.0,1572.5,247.88,0.43,2.0,1375.93,-4.59,5.0,0.96,-0.53,0.18,2.0,985.0,3049.0,20.0,-3.55,1.02,4.0,8.0,1.24,0.3,0.36,0.08,1.59,0.17,0.6,0.59,1.0,0.03,1598.36,-0.44,52.5,1.13,2.0,1158.03,-79.0,0.17,-267.64,65.0,0.74,14.63,-0.09,25.0,Very Low
1223.0,-0.96,21.88,28.0,0.11,0.24,0.16,0.66,-0.39,3113.0,-0.07,-4544.0,-3404.0,2935.0,0.15,1.68,1198.03,0.23,12.0,28.0,0.74,-34.0,-82.58,2385.5,1.0,12.0,1.47,-5105.0,-0.29,-0.0,-0.95,1.38,0.8,0.13,0.2,0.06,5665.0,2321.28,15.81,37.69,3.0,1.0,0.15,1507.0,-1.03,-0.48,-44.0,32.0,3545.0,-63.55,0.46,2.0,2100.87,2.24,8.0,1.21,-1.41,2.18,1.0,1785.0,3874.0,24.5,1.73,0.09,3.0,8.0,1.57,-0.07,0.1,0.02,1.15,0.05,0.0,0.38,6.0,0.09,1556.63,0.05,68.5,0.09,2.0,1557.13,-64.0,0.96,16.84,65.0,0.85,17.37,-0.94,36.0,Very Low
1178.0,-0.79,136.33,21.0,0.11,0.2,0.18,0.53,-0.88,3113.0,0.0,-4544.0,-3404.0,2843.0,0.12,0.95,1045.06,0.1,11.0,25.0,0.81,-32.0,87.84,2534.0,4.0,7.0,1.61,-5105.0,1.03,-0.12,-1.36,1.63,0.8,0.13,0.2,0.05,5758.0,2363.83,14.02,35.46,11.0,1.0,0.3,1451.0,-1.19,-0.32,-44.0,26.0,4045.0,67.61,0.49,3.0,2213.8,-0.56,9.0,-0.86,-1.35,1.24,1.0,1934.0,3874.0,15.0,-0.43,-0.69,11.0,8.0,-1.12,-0.19,0.05,0.01,0.87,0.02,0.0,0.16,7.0,0.12,1357.87,0.08,63.5,0.0,7.0,1566.01,-64.0,1.37,104.93,56.0,0.88,13.85,-0.91,31.0,Medium
854.0,1.15,193.12,14.0,0.11,0.29,0.12,0.46,-0.2,2860.0,0.16,-3678.0,-3556.0,2129.5,0.11,2.12,965.45,0.35,8.0,36.0,0.79,-46.0,-30.25,1832.0,4.0,9.5,-0.89,-4801.0,-0.38,-0.31,-0.5,-0.88,0.74,0.33,0.21,0.06,5758.0,2062.83,14.28,30.13,5.0,1.0,0.18,1073.5,-0.92,-0.3,-30.0,36.0,3073.25,-23.12,0.49,5.0,1845.85,5.31,11.0,-0.3,-0.73,2.77,5.0,1574.5,2956.0,19.0,4.06,-0.66,5.0,6.0,-0.4,-0.74,0.13,0.03,0.96,0.08,0.0,0.55,7.0,0.1,1263.02,0.18,45.0,0.44,7.0,1328.25,-55.0,0.5,147.62,81.0,0.9,14.64,-0.28,22.5,High
740.5,0.32,317.14,18.0,0.11,0.42,0.11,0.6,-0.12,1948.0,-1.13,-4017.0,-3556.0,1433.25,0.14,0.03,1092.06,0.91,9.0,36.0,0.75,-53.0,-173.35,1529.5,3.0,10.5,-1.38,-4801.0,-0.56,-1.01,-0.34,-1.39,0.57,0.16,0.21,0.09,5152.0,1784.57,18.46,27.73,4.0,1.0,0.16,660.5,0.97,-0.75,-31.0,36.0,1508.25,-131.13,0.44,3.0,1548.95,-0.33,4.0,-0.2,4.44,0.03,3.0,702.0,2930.0,20.75,-0.25,-0.03,4.0,9.0,-0.27,-0.64,0.35,0.08,1.13,0.2,0.0,2.56,6.0,0.07,1443.61,-0.17,29.75,-0.6,2.0,1099.02,-110.0,0.33,239.91,81.0,0.87,16.09,-0.0,15.5,Very High
834.0,-0.34,-1148.03,28.0,0.1,1.07,0.22,1.07,-0.25,1948.0,-1.1,-6360.0,-4506.0,1142.5,0.26,-3.81,997.74,0.54,15.5,28.0,0.0,-56.0,-127.64,1662.0,2.0,11.0,0.78,-4803.0,-0.13,-0.36,1.83,2.55,0.83,0.0,0.17,0.29,5266.0,1555.65,20.77,35.33,7.0,1.0,0.24,579.5,-0.65,-0.31,-49.0,30.0,3354.5,-96.06,0.42,2.0,2020.04,-17.83,7.0,-4.81,0.14,-5.07,2.0,1793.5,2369.0,21.0,-13.42,-0.31,8.0,12.0,-6.39,-0.42,0.3,0.06,4.3,0.11,0.0,2.91,2.0,0.12,1325.76,-0.59,35.5,0.27,1.0,1197.84,-110.0,-1.48,-863.98,25.0,0.7,16.82,0.73,16.5,Very High
757.0,0.35,-2111.39,21.0,0.11,1.03,0.21,1.14,-0.99,1833.0,-0.86,-6360.0,-4506.0,1094.5,0.28,-4.49,938.34,0.4,11.0,27.0,0.0,-56.0,-412.65,1619.5,1.0,7.0,0.96,-4803.0,0.3,-0.58,1.95,2.91,0.83,0.0,0.17,0.28,5266.0,1552.27,17.3,30.02,3.0,0.95,0.23,630.0,2.72,-0.34,-49.0,14.0,1137.5,-311.08,0.43,3.0,1255.09,-22.31,5.0,-6.43,0.22,-5.96,2.0,450.0,1351.0,17.5,-16.82,-0.14,8.0,9.0,-8.52,-0.52,0.21,0.04,4.3,0.08,0.0,2.58,9.0,0.1,1244.73,-0.7,35.0,0.19,1.0,1087.04,-102.0,-1.6,-1591.66,37.0,0.68,13.67,0.88,15.0,Very High
665.0,-0.19,-125.48,19.0,0.08,0.43,0.24,0.55,0.06,2901.0,0.02,-3498.0,-1906.0,2284.5,0.14,-0.7,1089.02,0.94,9.0,36.0,0.0,-35.0,188.48,1364.0,1.0,8.0,-1.41,-7455.0,0.28,0.81,-0.2,-1.51,0.75,0.0,0.14,0.39,9480.0,2949.57,13.76,33.26,3.0,0.91,0.47,1169.0,-0.12,-0.06,-36.0,45.0,3254.0,140.64,0.31,4.0,2245.33,11.5,3.0,3.93,-1.11,-0.94,1.0,1180.0,6358.0,14.5,8.58,-1.2,3.0,8.0,5.27,0.12,0.46,0.1,1.1,0.85,0.0,1.71,1.0,0.2,1459.44,-0.09,50.0,-0.15,1.0,1043.91,-51.0,-0.73,-93.63,77.0,0.56,16.37,-0.33,30.0,Very High
344.0,1.15,1212.48,9.5,0.03,0.21,0.23,0.1,0.18,2901.0,0.64,-3498.0,-1273.0,620.5,0.03,0.95,1206.13,0.0,5.0,36.0,0.0,-29.0,675.58,750.5,2.0,3.0,0.43,-7455.0,0.85,0.1,1.61,0.69,0.75,0.0,0.05,0.35,9480.0,2872.83,10.79,23.13,2.0,0.91,0.0,398.0,2.07,-0.29,-36.0,45.0,1568.0,486.81,0.1,4.0,1637.63,20.73,3.0,5.14,-0.83,1.31,1.0,561.0,6358.0,15.5,14.94,1.87,2.0,8.0,7.14,0.45,0.0,0.0,0.59,0.0,0.0,2.26,1.0,0.0,1673.81,0.85,39.0,1.87,2.0,616.5,-6.0,1.56,873.7,77.0,0.17,14.74,2.12,14.0,Very High
89.0,-0.22,670.03,4.5,0.02,0.15,0.19,0.04,2.66,1474.0,2.9,79.0,-283.0,78.0,0.01,-0.23,1273.91,0.0,2.0,8.0,0.0,-7.0,291.78,281.0,1.0,1.0,7.11,1289.0,7.61,1.98,3.11,7.87,0.82,0.0,0.02,0.25,4493.0,302.17,3.05,4.91,2.0,0.91,0.0,39.0,4.32,6.67,-4.0,19.0,673.5,207.2,0.06,5.0,600.39,0.92,2.0,0.53,11.88,-0.33,1.0,315.0,2969.0,2.0,0.65,9.02,2.0,10.0,0.74,0.15,0.0,0.0,0.62,0.0,0.0,51.76,1.0,0.0,1793.87,1.9,4.0,3.26,1.0,312.28,-6.0,3.02,475.82,31.0,0.07,4.06,3.55,2.0,High
34.0,-0.17,162.45,3.0,0.08,0.35,0.31,0.34,-0.15,208.0,0.15,1.0,-23.0,42.75,0.09,-0.2,1301.8,0.58,1.0,4.0,0.0,-5.0,72.51,71.75,6.0,1.0,-1.98,1685.0,1.24,0.95,0.32,-1.38,0.82,0.0,0.12,0.43,1863.0,38.37,1.84,1.97,3.0,0.91,0.55,23.5,-0.02,0.09,-4.0,2.0,210.75,53.46,0.3,3.0,126.48,-0.51,3.0,-0.38,1.11,-0.27,4.0,61.5,523.0,1.0,-0.38,-1.49,3.0,4.0,-0.51,-0.03,0.41,0.14,1.04,0.87,0.0,-0.19,1.0,0.39,1765.46,0.37,3.0,0.33,1.0,51.74,-6.0,-0.07,119.78,6.0,0.44,1.25,-0.52,1.0,High
27.0,-0.83,21.53,1.0,0.12,0.2,0.13,0.84,-0.07,122.0,0.04,-89.0,-84.0,36.0,0.2,-0.44,1356.69,0.43,1.0,2.0,0.76,-3.0,10.9,57.0,1.0,1.0,-1.1,1687.0,-0.34,-0.16,-0.58,-1.1,0.8,0.39,0.19,0.04,1847.0,28.97,1.1,1.23,4.0,0.91,0.03,18.0,-1.19,-0.18,-2.0,1.0,103.5,8.34,0.5,4.0,56.56,-0.78,3.0,-0.44,-0.45,-0.57,4.0,43.0,120.0,1.0,-0.59,0.65,4.0,7.0,-0.57,0.15,0.14,0.03,1.07,0.09,0.41,0.45,1.0,0.02,1772.01,0.47,2.0,1.52,1.0,39.59,-4.0,0.56,16.48,2.0,0.81,0.62,-0.43,1.0,High
30.0,3.71,189.8,2.0,0.11,0.09,0.04,0.93,2.16,931.0,1.53,-830.0,-336.0,52.5,0.22,1.24,1380.9,0.13,1.0,26.0,0.76,-13.0,98.49,102.0,1.0,1.0,-0.25,1086.0,4.03,1.49,-0.27,-0.17,0.55,0.37,0.19,0.02,3273.0,299.56,6.94,4.94,3.0,0.84,0.06,28.0,1.37,1.29,-3.0,16.0,124.0,75.41,0.47,1.0,536.32,2.37,3.0,0.87,1.88,1.63,1.0,51.0,1719.0,2.0,1.82,-0.44,3.0,15.0,1.14,1.7,0.04,0.01,1.07,0.03,0.71,5.13,1.0,0.02,1803.63,1.83,6.0,0.25,5.0,270.8,-3.0,0.16,145.32,19.0,0.79,4.15,2.31,1.0,High
580.0,1.32,367.06,18.0,0.11,0.4,0.19,0.47,-0.65,2566.0,-1.4,-5805.0,-3073.0,992.0,0.12,-1.21,1282.51,0.89,10.0,30.0,0.0,-75.0,-110.19,1059.0,5.0,7.0,3.7,-4005.0,0.88,-0.74,-0.08,-1.78,0.85,0.0,0.2,0.28,7560.0,1762.81,20.48,38.11,5.0,1.0,0.11,498.5,2.03,-0.37,-48.0,36.0,1535.75,-82.5,0.44,2.0,1578.05,-4.82,9.0,-1.28,1.61,-1.62,1.0,900.5,3609.0,13.75,-3.61,1.85,3.0,15.0,-1.71,-1.16,0.38,0.05,0.97,0.17,0.0,2.53,4.0,0.06,1712.95,-0.33,13.75,-0.69,2.0,1096.75,-112.0,-2.21,274.83,68.0,0.79,16.35,0.36,6.0,High
521.0,0.17,-1071.12,27.0,0.1,0.97,0.23,0.67,-0.25,2693.0,-0.81,-7701.0,-6327.0,1088.5,0.17,-6.34,1097.23,0.85,11.0,30.0,0.0,-75.0,-626.46,1030.0,9.0,8.0,-0.38,-4005.0,-0.01,-0.0,2.12,4.11,0.85,0.0,0.18,0.36,7560.0,1877.22,21.85,46.55,5.0,1.0,0.07,550.0,-0.1,-0.2,-52.0,36.0,3430.5,-462.76,0.4,2.0,2336.81,-18.0,13.0,-5.89,-0.28,-8.59,2.0,1400.0,3609.0,15.5,-13.3,-0.06,3.0,8.0,-7.98,-0.73,0.38,0.12,4.36,0.44,0.0,1.54,2.0,0.05,1485.37,-0.73,49.0,-0.28,1.0,1463.01,-134.0,-1.12,-791.23,68.0,0.7,19.09,3.03,21.0,Medium
305.0,1.05,-1884.27,14.5,0.11,0.83,0.16,1.26,-0.13,3778.0,-1.53,-7701.0,-6410.0,812.5,0.3,-1.58,1165.6,0.54,7.0,35.0,0.0,-68.0,-657.81,604.0,3.0,8.0,2.02,-2259.0,0.77,-0.43,1.63,3.58,0.75,0.0,0.16,0.24,7436.0,1598.71,19.24,35.38,7.0,0.95,0.08,399.0,2.47,0.58,-66.0,51.0,1756.0,-498.44,0.43,1.0,1574.97,-16.07,2.0,-1.12,1.61,-2.09,1.0,856.0,2626.0,16.0,-12.18,1.89,13.0,12.0,-1.48,-0.93,0.25,0.05,4.36,0.1,0.0,2.78,10.0,0.06,1538.28,-1.24,38.0,-1.32,1.0,1808.42,-134.0,-1.74,-1427.77,42.0,0.66,21.14,3.16,7.0,High
733.0,3.88,457.65,24.0,0.08,0.61,0.26,0.66,-1.57,6495.0,0.19,-4084.0,-6410.0,3165.5,0.17,1.54,909.81,1.26,13.0,129.0,0.0,-78.0,433.22,1548.5,3.0,13.0,-1.76,-9803.0,4.57,0.7,0.03,-1.78,0.72,0.0,0.12,0.38,7450.0,3275.56,27.65,43.11,3.0,1.0,0.52,1542.0,0.18,-0.76,-116.0,66.0,3818.5,323.26,0.31,7.0,2652.06,16.07,3.0,3.91,0.64,2.07,1.0,1876.0,9130.0,25.0,11.99,-1.73,3.0,13.0,5.24,0.06,0.58,0.18,1.46,0.74,0.0,1.39,1.0,0.14,1219.27,-0.78,45.5,-0.28,1.0,2014.22,-90.0,-0.32,341.49,147.0,0.45,29.93,3.24,20.0,High
499.0,7.56,1581.67,16.0,0.08,0.37,0.29,0.39,-2.09,6495.0,0.69,-2503.0,-1440.0,1350.0,0.1,-1.06,828.74,0.7,8.0,129.0,0.0,-78.0,758.44,1076.0,7.0,6.0,-1.89,-9803.0,8.75,0.93,0.13,-1.53,0.78,0.0,0.13,0.43,7450.0,2957.72,24.63,36.12,4.0,1.0,0.58,762.0,2.5,-1.15,-116.0,66.0,1819.0,560.25,0.32,3.0,1913.78,22.59,4.0,1.64,1.45,-1.43,1.0,923.0,9130.0,12.0,16.69,-1.73,4.0,13.0,2.22,0.67,0.44,0.09,1.04,0.86,0.0,2.93,1.0,0.29,1121.9,2.13,40.5,-0.02,13.0,1205.55,-90.0,-0.29,1168.37,147.0,0.49,25.75,5.99,16.0,Very High
160.0,0.33,438.99,9.0,0.12,0.41,0.16,0.98,-0.35,1252.0,-0.14,-1297.0,-654.0,415.5,0.23,-1.0,1268.45,0.62,5.0,23.0,0.0,-18.0,125.36,321.75,2.0,6.0,10.82,389.0,-1.05,-0.17,-0.28,-0.41,0.78,0.0,0.18,0.18,2755.0,453.67,7.79,15.02,4.0,0.89,0.2,212.5,-0.78,-0.38,-17.0,10.0,1276.75,95.33,0.48,2.0,862.66,-4.11,5.0,-1.59,0.34,-1.32,2.0,654.5,2261.0,12.75,-3.12,1.84,3.0,11.0,-2.09,0.43,0.34,0.07,1.61,0.14,0.0,0.54,2.0,0.08,1668.1,0.73,22.0,-0.86,1.0,382.21,-45.0,-3.15,333.81,39.0,0.74,6.86,0.26,11.0,Very High
632.0,3.41,226.11,25.0,0.1,0.31,0.09,1.2,0.58,6230.0,0.42,-8241.0,-5698.0,1455.5,0.28,-3.59,1121.43,0.55,12.0,102.0,0.64,-136.0,-143.73,1242.5,3.0,8.0,-1.19,-5906.0,0.52,0.56,-0.3,-1.22,0.62,0.22,0.17,0.07,10883.0,2796.91,33.37,63.33,5.0,0.85,0.09,708.0,3.19,0.08,-40.0,38.0,1820.5,-110.05,0.44,2.0,2485.72,-3.03,7.0,-2.59,1.7,-4.69,2.0,969.0,9355.0,17.0,-2.32,-0.03,5.0,14.0,-3.38,-0.48,0.28,0.06,1.61,0.12,0.65,1.59,8.0,0.04,1464.72,0.19,25.5,-0.34,2.0,1999.3,-185.0,0.31,173.11,175.0,0.73,14.84,2.04,13.0,Very High
1130.0,2.57,-875.94,31.0,0.1,0.32,0.1,1.26,0.02,6230.0,0.4,-8241.0,-5698.0,4182.0,0.3,-0.41,736.02,0.57,16.0,102.0,0.64,-136.0,-331.0,2490.0,2.0,16.0,-1.02,-5906.0,-0.54,1.07,-0.75,-1.04,0.58,0.22,0.17,0.07,10883.0,3202.44,35.13,67.83,5.0,0.85,0.14,2140.0,1.66,0.34,-53.0,44.0,3209.0,-253.42,0.43,3.0,2898.45,-7.79,9.0,-4.27,0.85,-0.54,2.0,1389.0,9355.0,34.0,-5.96,-0.74,5.0,15.0,-5.58,-0.65,0.12,0.03,1.61,0.13,0.65,0.18,10.0,0.07,961.33,0.34,58.0,-0.26,1.0,2188.39,-185.0,0.75,-670.64,175.0,0.72,22.2,0.86,30.0,Very High
1119.0,-0.09,-835.97,23.5,0.12,0.42,0.16,1.1,-0.02,6476.0,0.18,-5699.0,-5319.0,6087.5,0.27,1.74,833.97,0.83,12.0,65.0,0.65,-48.0,3.34,2202.0,2.0,18.0,-1.47,-8938.0,-0.66,1.09,-0.41,-1.46,0.88,0.2,0.18,0.09,10096.0,4548.2,24.15,50.35,3.0,0.9,0.17,2884.0,0.32,-0.26,-54.0,45.0,3416.5,2.53,0.5,3.0,3218.46,-2.53,11.0,-3.4,-0.14,2.29,1.0,1274.0,9002.0,36.0,-1.92,-0.11,3.0,7.0,-4.48,0.17,0.3,0.07,1.58,0.19,0.45,-0.35,14.0,0.09,1100.62,-0.01,56.5,0.57,1.0,2059.92,-106.0,0.4,-633.44,120.0,0.76,24.62,0.83,25.0,Very High
1458.0,-0.68,1279.24,53.0,0.08,0.57,0.31,0.45,0.0,6476.0,-0.46,-5699.0,-8488.0,9390.5,0.12,0.49,613.69,0.7,26.0,65.0,0.0,-80.0,-48.65,3258.5,4.0,14.0,-1.91,-8938.0,-0.54,0.13,1.35,1.57,0.88,0.0,0.11,0.41,10096.0,5392.78,32.52,56.0,3.0,0.9,0.54,4620.0,-0.62,-0.22,-54.0,45.0,4991.5,-35.58,0.28,2.0,3451.02,28.9,3.0,0.18,-0.78,0.67,7.0,2531.0,9002.0,32.0,21.14,-1.35,2.0,7.0,0.24,-0.15,0.23,0.24,2.29,0.84,0.0,-1.22,1.0,0.1,839.13,-0.66,87.5,0.47,8.0,2636.79,-98.0,0.09,935.57,120.0,0.4,22.84,0.46,38.0,Very High
1822.0,1.55,1242.33,25.0,0.01,0.41,0.1,0.08,-0.29,2914.0,-0.27,-2350.0,-8488.0,2794.0,0.02,4.74,434.14,0.0,13.0,56.0,0.0,-80.0,-1750.58,4125.0,4.0,11.0,24.58,-8399.0,-0.02,1.54,5.15,24.57,0.59,0.0,0.0,0.09,6972.0,3392.78,25.85,41.54,2.0,0.51,0.0,1451.0,2.55,-0.5,-44.0,41.0,1580.5,-1249.2,0.02,3.0,2143.76,38.99,2.0,3.97,-0.22,6.64,6.0,834.0,8606.0,24.0,27.83,25.55,2.0,10.0,5.56,-0.98,0.0,0.0,2.29,0.0,0.0,0.09,1.0,0.0,608.38,0.12,56.0,5.22,1.0,2493.55,-74.0,5.15,886.52,120.0,0.02,18.26,-0.69,28.0,Very High
1245.0,0.0,-617.82,20.5,0.0,0.0,0.0,0.0,0.06,6118.0,0.5,-5110.0,-5391.0,2083.0,0.0,5.83,821.93,0.0,10.0,40.0,0.0,-33.0,-1808.09,2427.0,4.0,12.0,-3.0,-3112.0,-0.89,-0.58,0.0,-3.0,0.0,0.0,0.0,0.0,6621.0,2011.38,15.44,27.83,0.0,0.0,0.0,1083.0,-0.52,0.51,-20.0,43.0,2541.5,-1290.24,0.0,3.0,1612.62,40.05,0.0,8.66,-0.12,8.18,3.0,1232.0,1731.0,24.5,28.58,-3.0,0.0,7.0,12.13,-0.2,0.0,0.0,0.0,0.0,0.0,0.41,1.0,0.0,1151.82,0.91,33.5,0.0,1.0,2207.74,-13.0,0.0,-440.87,117.0,0.0,15.72,0.72,16.0,Very High
847.0,0.13,-1693.21,17.0,0.0,0.0,0.0,0.0,0.51,6667.0,0.54,-5110.0,-3774.0,1528.5,0.0,3.8,997.47,0.0,6.0,40.0,0.0,-33.0,720.2,2793.0,2.0,9.0,-3.0,-3112.0,-0.68,-0.28,0.0,-3.0,0.0,0.0,0.0,0.0,6621.0,1978.11,14.92,28.53,0.0,0.0,0.0,893.0,0.43,0.21,-20.0,43.0,1353.0,516.44,0.0,2.0,1126.79,31.55,0.0,7.24,-0.92,5.3,1.0,696.0,807.0,20.5,22.62,-3.0,0.0,7.0,10.1,0.19,0.0,0.0,0.0,0.0,0.0,0.39,1.0,0.0,1391.03,0.06,50.5,0.0,1.0,2209.19,-4.0,0.0,-1214.16,94.0,0.0,15.05,0.28,24.0,Very High
589.0,4.66,-1017.93,3.0,0.0,0.0,0.0,0.0,2.12,6667.0,2.42,-4052.0,44.0,193.0,0.0,1.24,1083.89,0.0,2.0,32.0,0.0,-9.0,1223.36,1303.0,1.0,1.0,-3.0,-1692.0,3.64,-1.11,0.0,-3.0,0.0,0.0,0.0,0.0,3352.0,793.91,8.0,22.15,0.0,0.0,0.0,88.0,0.8,-2.21,-4.0,34.0,1245.0,847.43,0.0,1.0,887.17,9.3,0.0,2.36,4.84,1.8,1.0,555.0,-33.0,2.0,6.44,-3.0,0.0,11.0,3.41,2.28,0.0,0.0,0.0,0.0,0.0,6.99,1.0,0.0,1564.71,2.31,8.0,0.0,1.0,1317.81,-6.0,0.0,-705.13,92.0,0.0,8.51,5.95,4.0,Very High
64.0,10.68,-161.37,1.5,0.09,1.34,0.36,1.13,2.47,742.0,0.15,-574.0,-72.0,76.0,0.34,-0.11,1242.88,2.71,1.0,13.0,0.0,-4.0,227.34,214.0,2.0,1.0,-1.71,1440.0,7.83,-1.22,0.35,-1.84,0.78,0.0,0.05,0.2,1952.0,67.58,2.3,2.6,3.0,0.55,0.71,38.0,0.48,-1.4,-3.0,8.0,185.5,158.41,0.3,1.0,159.53,-0.69,3.0,-0.44,-0.31,-0.15,5.0,60.0,39.0,2.0,-0.48,-1.83,3.0,3.0,-0.63,2.56,0.0,0.0,3.01,0.38,0.0,6.11,1.0,0.0,1783.68,1.17,3.0,0.36,1.0,194.09,-7.0,0.4,-112.45,5.0,0.17,1.93,0.5,2.0,High
190.5,0.8,265.02,12.5,0.16,0.68,0.19,2.34,1.37,4018.0,1.31,-962.0,-2789.0,220.25,0.61,5.03,1273.36,0.51,4.0,35.0,0.0,-3.0,688.88,1392.25,1.0,1.0,4.05,-1607.0,1.68,2.12,-2.35,5.54,0.81,0.0,0.11,0.13,5020.0,1194.9,9.44,20.21,2.0,0.64,0.18,89.0,4.56,-0.19,-12.0,28.0,260.75,507.96,0.62,1.0,847.42,13.11,8.0,1.36,0.68,6.82,1.0,103.0,3760.0,7.5,9.67,4.72,4.0,10.0,1.85,1.29,0.23,0.05,3.01,0.1,0.0,1.93,4.0,0.07,1726.89,0.5,24.5,-2.17,1.0,1368.88,-7.0,-1.58,195.42,85.0,0.42,6.51,0.23,5.0,Very Low
1236.0,0.07,537.6,21.0,0.13,0.47,0.13,1.92,-0.64,4018.0,-0.83,-1998.0,-3503.0,1303.5,0.47,0.29,1119.7,0.84,10.0,35.0,0.37,-47.0,450.12,2662.5,1.0,9.0,-1.24,-1804.0,-0.46,0.63,0.51,-1.24,0.81,0.31,0.14,0.11,5817.0,1630.68,17.83,36.49,3.0,0.7,0.14,656.0,0.27,0.33,-37.0,28.0,1476.5,339.32,0.54,1.0,1280.87,3.88,3.0,-1.41,0.72,0.38,1.0,743.0,4172.0,18.0,2.93,-0.52,3.0,9.0,-1.86,-0.55,0.29,0.06,2.83,0.19,1.35,0.12,6.0,0.07,1485.32,-0.04,32.5,0.22,4.0,1759.8,-98.0,-0.52,405.27,85.0,0.57,15.55,-0.74,17.0,Very Low
442.0,1.79,0.05,10.0,0.1,0.27,0.1,1.3,-0.6,1841.0,-1.82,-1998.0,-3503.0,422.5,0.31,-4.92,1125.87,0.48,4.0,13.0,0.62,-47.0,-174.16,874.0,2.0,5.0,-1.33,-1804.0,-0.11,1.33,-0.22,-1.34,0.56,0.22,0.17,0.06,5817.0,1118.1,12.32,26.82,3.0,0.8,0.17,153.0,2.17,0.52,-37.0,24.0,1138.5,-132.65,0.41,1.0,1159.11,-8.29,4.0,-3.78,2.79,-6.46,2.0,513.0,4172.0,14.0,-6.32,-1.19,3.0,8.0,-4.96,-1.43,0.23,0.05,1.72,0.11,0.88,4.62,2.0,0.08,1478.18,-0.88,11.5,-0.21,1.0,1003.73,-98.0,0.21,0.04,32.0,0.71,13.69,0.95,6.0,Medium
265.0,0.24,-457.79,7.5,0.09,0.26,0.08,1.28,-1.28,566.0,-0.94,-1723.0,-1442.0,240.0,0.3,0.4,1142.02,0.51,4.0,19.0,0.63,-14.0,-229.33,570.5,5.0,2.0,-1.33,-197.0,2.2,-1.13,-0.01,-1.36,0.5,0.22,0.17,0.06,2231.0,369.02,6.06,13.88,4.0,0.8,0.15,110.0,1.01,-2.22,-25.0,9.0,482.0,-175.58,0.38,9.0,345.37,-6.29,7.0,-1.4,0.02,0.52,1.0,205.0,-1.0,6.5,-4.82,-1.18,4.0,1.0,-1.82,0.21,0.26,0.05,1.67,0.11,0.88,6.39,1.0,0.07,1491.62,-0.86,18.5,-0.37,2.0,492.77,-45.0,0.0,-350.49,17.0,0.72,6.2,-0.21,7.0,Medium
724.0,0.95,-333.55,17.75,0.11,0.4,0.08,1.19,-1.38,7863.0,0.05,-3570.0,-7307.0,1458.75,0.28,-4.27,970.89,0.74,9.0,20.0,0.63,-59.0,-763.19,1701.0,8.0,8.0,-0.76,-10186.0,2.91,0.19,-0.62,-0.79,0.59,0.29,0.17,0.09,8625.0,3423.49,14.72,25.78,4.0,0.95,0.1,766.5,1.66,-0.69,-62.0,24.0,826.5,-586.45,0.46,1.0,1133.73,-15.6,7.0,-3.37,0.18,-5.55,7.0,388.5,2992.0,15.5,-11.99,-0.79,4.0,7.0,-4.38,-1.02,0.29,0.06,1.67,0.17,0.23,1.36,8.0,0.06,1263.49,0.3,29.5,-0.04,8.0,2519.84,-86.0,0.63,-256.31,42.0,0.73,15.74,1.98,15.5,Medium
688.0,0.31,-78.37,20.0,0.12,0.37,0.12,0.66,-1.33,7863.0,-0.64,-3570.0,-7307.0,1926.0,0.16,-3.49,1080.14,0.21,10.0,27.0,0.66,-59.0,-606.55,1926.0,2.0,10.0,0.04,-10186.0,2.42,-0.27,0.48,0.06,0.75,0.33,0.2,0.08,8625.0,3445.48,16.43,28.36,3.0,1.0,0.16,961.0,1.16,-0.79,-62.0,27.0,893.0,-464.39,0.52,1.0,1183.78,-4.24,6.0,0.58,-0.04,-4.56,1.0,461.0,2992.0,19.0,-3.24,-0.93,3.0,8.0,0.76,-0.58,0.11,0.03,1.51,0.05,0.0,1.36,7.0,0.09,1410.79,0.12,42.5,0.44,7.0,2525.58,-86.0,-0.5,-60.01,42.0,0.85,17.68,1.85,21.0,Medium
73.0,1.55,28.54,7.5,0.11,0.24,0.13,0.6,1.31,842.0,0.86,-956.0,-1062.0,156.5,0.14,0.77,1288.79,0.25,3.0,27.0,0.8,-25.0,-108.41,151.0,1.0,3.0,0.42,-377.0,0.74,2.17,-1.05,0.46,0.75,0.27,0.2,0.05,4867.0,548.73,8.83,11.32,3.0,1.0,0.09,75.0,7.84,-0.22,-6.0,27.0,144.0,-83.01,0.46,2.0,400.27,3.2,6.0,3.18,1.55,1.0,3.0,68.0,1804.0,8.5,2.45,-0.19,3.0,8.0,4.15,0.68,0.13,0.03,0.88,0.05,0.0,11.68,5.0,0.04,1683.31,-0.15,7.0,0.97,1.0,298.65,-32.0,1.05,21.85,36.0,0.87,8.1,2.9,3.0,Medium
97.0,1.33,-27.67,10.5,0.09,0.71,0.08,0.79,2.18,4909.0,2.38,-827.0,-1133.0,186.0,0.18,4.69,1135.29,0.24,3.0,44.0,0.12,-8.0,427.53,577.5,3.0,3.0,14.4,-2074.0,5.45,1.89,3.79,14.33,0.53,0.22,0.19,0.16,2855.0,829.72,12.34,17.57,7.0,1.0,0.12,95.0,10.85,-2.26,-9.0,35.0,197.0,327.33,0.39,1.0,300.1,8.56,9.0,1.56,5.76,6.12,1.0,74.0,1840.0,5.0,6.55,-0.65,7.0,1.0,2.03,1.52,0.12,0.03,3.96,0.05,0.01,5.93,1.0,0.05,1482.83,1.73,12.0,-0.47,5.0,1127.3,-7.0,-3.81,-21.19,87.0,0.82,7.75,2.79,3.0,Medium
1123.0,0.49,468.97,18.5,0.09,1.02,0.17,0.97,-0.42,6736.0,0.81,-1834.0,-2573.0,1448.0,0.24,5.42,1035.94,0.87,9.0,58.0,0.0,-29.0,709.05,2152.5,1.0,6.0,-0.32,-3404.0,1.39,1.59,1.68,2.14,0.54,0.0,0.16,0.33,7621.0,1900.76,17.2,39.44,5.0,1.0,0.2,770.0,2.51,0.26,-43.0,35.0,1011.0,537.27,0.36,2.0,1306.01,11.35,8.0,-1.78,1.04,7.16,2.0,386.0,4866.0,12.0,8.6,0.29,9.0,11.0,-2.35,0.49,0.46,0.1,3.96,0.23,0.0,1.06,5.0,0.07,1367.16,0.76,33.0,-1.2,5.0,1810.5,-77.0,-1.12,355.35,129.0,0.66,13.88,0.96,17.0,Medium
723.5,4.59,83.05,11.0,0.12,0.95,0.22,1.73,-0.35,6736.0,1.6,-2344.0,-2573.0,994.75,0.44,-1.91,1295.41,1.27,6.5,58.0,0.0,-29.0,-112.08,1605.0,3.0,7.5,0.14,-3404.0,-0.23,1.33,-0.51,-0.64,0.79,0.0,0.13,0.24,7621.0,1777.08,14.31,40.53,5.0,1.0,0.24,553.5,1.45,-0.06,-43.0,15.0,1693.5,-83.49,0.47,7.0,1531.9,-7.58,3.0,-8.42,2.64,-2.57,1.0,691.0,4866.0,17.0,-5.65,0.17,3.0,11.0,-11.3,1.38,0.56,0.1,3.38,0.22,0.0,1.81,1.0,0.1,1739.05,1.78,40.75,-0.76,1.0,1661.38,-77.0,-0.59,61.87,129.0,0.5,12.09,4.23,20.5,High
317.0,1.54,-546.49,5.0,0.17,0.31,0.14,2.52,-0.77,650.0,-0.88,-2344.0,-1662.0,296.0,0.66,-0.95,1431.27,0.34,2.0,24.0,0.38,-26.0,-588.92,675.75,1.0,4.0,0.15,1034.0,-0.65,-0.94,-1.18,0.18,0.8,0.37,0.12,0.07,3317.0,370.58,8.88,16.59,3.0,0.61,0.26,117.0,1.94,0.54,-31.0,1.0,655.0,-434.26,0.63,1.0,501.06,-12.32,11.0,-6.4,-0.75,-1.29,1.0,225.0,861.0,14.0,-9.08,-1.53,3.0,9.0,-8.68,-0.08,0.05,0.01,2.79,0.07,1.74,2.82,2.0,0.13,1941.04,-0.16,23.0,-0.08,1.0,485.81,-52.0,1.17,-402.96,7.0,0.44,9.11,-0.25,5.0,High
651.0,0.46,511.17,13.0,0.17,0.34,0.13,2.53,-0.83,443.0,-0.67,-1049.0,-4096.0,1028.5,0.67,-3.28,1213.21,0.31,6.0,24.0,0.38,-37.0,-1207.61,1792.0,1.0,4.0,1.01,-910.0,-0.57,1.28,-1.48,1.04,0.8,0.42,0.12,0.08,5168.0,977.79,10.97,28.03,3.0,0.67,0.25,302.0,0.81,0.51,-35.0,5.0,1646.5,-887.6,0.63,1.0,1195.6,-28.8,17.0,-6.42,-0.6,-4.46,1.0,305.0,4195.0,15.5,-21.17,-1.72,3.0,7.0,-8.73,-0.02,0.04,0.01,2.79,0.07,1.47,2.38,1.0,0.12,1650.63,-0.8,46.0,0.03,1.0,1091.98,-94.0,1.48,375.71,2.0,0.44,10.96,-0.51,23.0,Very High
882.0,-0.3,706.76,21.0,0.13,0.91,0.22,1.58,-0.34,2922.0,-0.03,-3383.0,-4096.0,1937.5,0.41,-2.83,1239.1,1.75,10.0,34.0,0.0,-37.0,-1117.14,1852.0,1.0,9.0,0.16,-1149.0,-0.77,0.11,-0.32,-1.26,0.77,0.0,0.14,0.25,5853.0,1729.23,15.72,43.74,4.0,0.91,0.29,985.0,0.62,0.73,-35.0,28.0,1656.5,-829.39,0.49,1.0,1353.07,-13.65,3.0,-2.79,-1.2,-3.82,1.0,800.0,4195.0,22.5,-10.13,0.01,3.0,7.0,-3.76,0.52,0.8,0.15,2.72,0.33,0.0,-0.14,7.0,0.17,1668.99,0.69,74.0,-0.76,1.0,1526.01,-94.0,-0.67,524.72,60.0,0.55,15.09,0.26,35.0,Medium
1474.5,0.2,-622.01,36.75,0.04,0.52,0.24,0.33,0.72,4279.0,-0.56,-3383.0,-2399.0,2804.5,0.09,16.27,776.55,0.63,16.5,104.0,0.0,-34.0,521.18,3056.75,3.0,10.0,-1.46,-1835.0,0.18,0.32,1.39,0.91,0.76,0.0,0.08,0.39,5853.0,2158.02,30.83,29.95,3.0,0.91,0.36,1401.5,0.28,0.77,-41.0,73.0,1583.0,380.46,0.16,1.0,1229.14,18.84,3.0,11.3,-0.31,22.29,4.0,834.5,3313.0,21.0,13.76,-0.17,3.0,7.0,15.49,0.76,0.0,0.0,1.99,0.73,0.0,-0.37,1.0,0.0,1063.77,0.11,43.0,1.11,1.0,1616.25,-57.0,0.68,-454.07,71.0,0.28,22.98,-1.22,23.0,Medium
,,,,,,,,,,,,,,,,,,,,,,,,,,,,,,,,,,,,,,,,,,,,,,,,,,,,,,,,,,,,,,,,,,,,,,,,,,,,,,,,,,,,,,,,,,
1007.0,2.89,-237.8,23.25,0.1,0.22,0.07,0.89,0.34,2830.0,-0.39,-7239.0,-4804.0,4825.5,0.22,-2.43,1358.91,0.46,12.0,51.0,0.74,-115.0,51.94,2014.5,5.0,10.0,-1.22,-6655.0,-0.01,-0.03,-0.56,-1.24,0.59,0.25,0.2,0.05,10974.0,3474.28,29.64,39.8,3.0,0.88,0.05,2415.0,-0.21,-0.26,-39.0,47.0,3528.25,39.83,0.39,2.0,2623.43,-10.91,17.0,-1.15,0.65,-3.17,7.0,1848.0,5633.0,20.0,-8.36,1.63,3.0,11.0,-1.49,-1.26,0.12,0.02,1.17,0.1,0.55,-0.09,2.0,0.03,1772.09,-0.71,45.75,1.12,7.0,1547.72,-132.0,0.58,-182.36,105.0,0.8,16.6,0.56,24.0,Very High
1158.0,2.42,-1117.96,21.0,0.09,0.23,0.1,0.7,0.6,3129.0,-0.3,-7239.0,-5267.0,1829.0,0.16,-3.15,1063.53,0.3,10.0,51.0,0.75,-115.0,-417.76,2465.0,5.0,9.0,1.3,-5881.0,1.13,0.69,-0.35,1.17,0.59,0.15,0.2,0.05,10974.0,2903.09,30.2,38.52,4.0,1.0,0.11,882.0,0.78,0.24,-43.0,47.0,2246.0,-319.85,0.36,2.0,2489.93,-16.85,4.0,-4.24,1.14,-4.12,2.0,1070.0,5633.0,17.5,-12.9,0.07,4.0,12.0,-5.54,-1.16,0.08,0.02,1.13,0.06,0.02,1.16,1.0,0.06,1389.1,-0.37,27.5,0.33,1.0,1708.04,-132.0,0.41,-855.94,105.0,0.85,15.84,-0.0,10.0,Very High
683.0,1.39,-1228.5,12.5,0.09,0.21,0.12,0.69,0.25,3129.0,-1.21,-5461.0,-5267.0,926.5,0.16,-3.44,1064.09,0.29,4.0,32.0,0.79,-44.0,-1116.68,1435.0,3.0,8.0,2.12,-3765.0,0.58,0.52,-1.21,1.97,0.8,0.15,0.2,0.05,6593.0,1638.8,12.0,21.98,5.0,1.0,0.13,451.0,2.08,0.17,-43.0,28.0,900.0,-854.96,0.38,3.0,1240.82,-16.27,3.0,-5.86,1.67,-4.5,2.0,451.0,2747.0,15.5,-12.46,1.62,5.0,8.0,-7.65,-0.92,0.14,0.03,0.95,0.06,0.02,2.32,8.0,0.06,1389.84,-0.27,19.5,0.94,1.0,1338.56,-90.0,1.25,-940.57,31.0,0.85,12.99,2.07,7.0,High
1161.0,-0.14,294.69,18.5,0.11,0.21,0.15,0.64,-0.19,4851.0,-0.11,-2122.0,-4958.0,1800.5,0.15,-0.2,1187.04,0.18,9.0,32.0,0.79,-36.0,166.1,2253.0,1.0,11.0,1.55,-2435.0,-0.73,0.59,-0.94,1.54,0.81,0.27,0.2,0.05,6593.0,1815.06,13.1,37.08,3.0,0.99,0.21,908.0,-0.37,0.31,-32.0,34.0,2781.5,127.83,0.48,5.0,1711.78,11.44,5.0,4.57,-0.9,-0.26,1.0,1466.0,4937.0,24.5,8.8,-0.29,3.0,8.0,5.94,-0.23,0.08,0.02,0.95,0.03,0.04,0.41,1.0,0.07,1542.34,-0.34,49.5,0.9,1.0,1762.76,-61.0,0.96,226.81,83.0,0.86,15.85,0.32,29.0,High
439.0,0.18,1317.27,12.0,0.1,0.18,0.16,0.6,0.69,4851.0,0.52,-4471.0,-2449.0,1139.5,0.14,3.24,1216.26,0.1,5.0,32.0,0.82,-23.0,965.2,859.5,2.0,6.0,4.06,-2179.0,-0.5,-0.28,-2.03,3.95,0.81,0.19,0.2,0.04,8051.0,1842.74,10.03,23.55,7.0,0.99,0.09,592.0,1.65,0.95,-5.0,34.0,1678.5,746.76,0.43,6.0,1645.13,28.52,4.0,8.37,-0.83,4.19,1.0,595.0,5237.0,15.0,22.06,0.29,7.0,8.0,10.82,-0.2,0.05,0.01,0.83,0.03,0.04,1.94,1.0,0.04,1572.03,0.18,38.0,1.07,9.0,1026.35,-24.0,2.08,1019.15,83.0,0.87,10.05,2.92,14.0,Very High
572.0,0.37,942.41,14.5,0.09,0.28,0.25,0.48,0.52,3510.0,0.25,-5169.0,-3149.0,1150.0,0.11,1.03,1162.94,0.33,7.0,24.0,0.0,-29.0,149.76,1319.0,6.0,5.0,0.31,-6654.0,1.33,-0.65,-0.83,-0.76,0.86,0.0,0.17,0.35,8051.0,2570.6,9.96,22.31,5.0,0.99,0.33,586.0,1.27,-0.44,-39.0,53.0,1395.5,114.06,0.37,4.0,1982.23,15.03,13.0,3.48,1.56,1.35,6.0,645.0,5237.0,10.5,11.45,-0.86,4.0,8.0,4.57,-0.51,0.11,0.02,0.83,0.06,0.0,2.21,8.0,0.16,1526.85,-0.37,19.0,0.08,7.0,1226.66,-47.0,-1.5,717.79,82.0,0.7,14.99,0.72,9.0,Very High
589.0,0.75,868.13,12.0,0.08,0.29,0.25,0.53,1.01,3510.0,0.02,-5169.0,-3149.0,1608.5,0.13,2.3,1135.58,0.33,6.0,24.0,0.0,-29.0,-289.07,1237.5,7.0,5.0,0.42,-6654.0,1.59,-1.06,-0.97,-0.58,0.86,0.0,0.17,0.34,6585.0,2377.41,10.16,22.15,4.0,0.96,0.32,801.0,2.93,-0.93,-39.0,53.0,1012.5,-219.04,0.35,13.0,1618.93,8.73,11.0,0.66,0.65,3.03,7.0,511.0,4775.0,14.5,6.62,-0.79,4.0,8.0,0.88,-0.46,0.11,0.02,0.81,0.05,0.0,2.9,9.0,0.12,1498.65,0.55,24.5,0.26,7.0,1184.61,-47.0,-1.54,657.81,82.0,0.69,15.39,1.25,12.0,Very High
833.0,1.54,127.05,18.0,0.07,0.45,0.22,0.56,0.21,3516.0,0.58,-6104.0,-4065.0,2919.0,0.14,2.93,1088.46,0.66,8.0,73.0,0.0,-66.0,136.57,1949.0,13.0,5.0,-0.51,-9688.0,3.67,-1.14,1.91,8.95,0.8,0.0,0.16,0.36,9610.0,3190.2,21.82,46.59,3.0,0.99,0.21,1524.0,1.21,-0.92,-54.0,47.0,2052.5,102.95,0.3,3.0,1930.81,-7.78,11.0,0.56,1.06,3.88,7.0,985.0,4685.0,13.5,-5.87,-0.18,3.0,8.0,0.75,0.36,0.11,0.02,2.72,0.14,0.0,2.18,7.0,0.1,1443.87,0.02,46.0,0.3,1.0,1634.34,-109.0,-1.18,95.78,139.0,0.65,13.01,-0.18,21.0,Very High
2413.5,0.45,-79.61,46.75,0.04,0.42,0.24,0.17,0.02,3516.0,0.44,-6104.0,-9679.0,4653.75,0.05,3.99,665.21,0.03,21.0,127.0,0.0,-66.0,-1058.29,4693.0,6.0,14.0,-0.5,-9922.0,-0.47,-0.25,4.33,22.68,0.8,0.0,0.06,0.38,9665.0,4121.26,33.08,67.19,3.0,0.99,0.15,2348.5,1.08,-0.42,-54.0,47.0,2264.0,-768.71,0.13,4.0,2106.66,13.48,3.0,-0.14,-0.64,5.49,1.0,1090.0,6347.0,28.0,9.79,1.02,3.0,8.0,-0.19,0.81,0.0,0.0,2.72,0.2,0.0,0.31,1.0,0.0,915.81,-0.58,89.0,1.56,10.0,3092.46,-109.0,1.2,-57.83,182.0,0.22,19.8,-0.26,50.5,Very High
2177.0,1.22,334.86,39.0,0.02,0.38,0.19,0.17,0.43,8298.0,0.32,-2910.0,-9679.0,3241.0,0.05,-1.17,591.1,0.0,17.0,127.0,0.0,-67.0,-1002.73,4408.0,2.0,17.0,0.92,-9922.0,-0.62,0.73,1.94,2.13,0.7,0.0,0.04,0.31,9665.0,3431.61,32.71,62.35,3.0,0.86,0.0,1705.0,2.52,-0.34,-54.0,56.0,1630.0,-723.36,0.09,3.0,1487.43,11.26,3.0,-3.54,0.27,-1.63,1.0,820.0,6347.0,40.0,8.12,1.93,2.0,12.0,-4.91,0.95,0.0,0.0,1.27,0.0,0.0,1.27,1.0,0.0,819.39,0.0,70.0,1.88,1.0,3360.63,-143.0,1.7,241.56,182.0,0.14,25.46,0.37,33.0,Very High
1801.0,4.75,236.41,32.0,0.08,0.61,0.24,0.82,0.51,8298.0,-0.41,-2810.0,-4987.0,2794.0,0.2,-1.78,897.47,1.38,15.0,167.0,0.0,-67.0,1036.54,3018.5,2.0,17.0,-1.45,-9224.0,-0.07,0.72,-0.45,-1.56,0.7,0.0,0.12,0.35,8201.0,2976.77,33.69,40.28,3.0,0.86,0.54,1481.0,1.9,-0.9,-54.0,58.0,1804.5,777.41,0.34,6.0,1439.37,-15.84,3.0,-3.26,0.8,-2.37,2.0,860.0,5884.0,33.0,-11.88,-1.45,3.0,11.0,-4.35,1.61,0.34,0.07,1.49,0.73,0.0,2.43,10.0,0.1,1196.63,0.34,51.0,-0.54,6.0,2396.01,-143.0,-0.68,177.31,78.0,0.49,25.13,0.38,26.0,Very High
748.0,3.61,-117.37,37.0,0.1,0.31,0.13,1.05,-0.21,4993.0,-0.15,-2847.0,-4987.0,2499.0,0.25,-1.71,529.33,0.64,14.0,167.0,0.67,-65.0,1158.82,1706.0,8.0,11.0,-1.76,-9224.0,0.01,0.61,0.11,-1.77,0.59,0.2,0.18,0.07,8201.0,2423.18,35.45,29.75,3.0,0.85,0.23,1289.0,0.21,-0.66,-47.0,58.0,2671.5,887.22,0.41,2.0,1759.6,-9.07,4.0,-0.34,-0.02,-2.23,6.0,1338.0,5884.0,27.5,-6.95,-1.31,3.0,8.0,-0.45,1.49,0.27,0.06,1.49,0.15,0.68,5.07,2.0,0.1,691.37,-0.16,39.5,-0.29,6.0,1585.96,-97.0,-0.11,-89.86,64.0,0.77,21.17,1.45,19.0,Very High
1203.0,0.57,-252.08,26.0,0.09,0.3,0.24,0.52,-1.09,2470.0,-0.17,-2847.0,-5173.0,2436.25,0.13,-3.73,575.18,0.3,17.5,68.0,0.0,-65.0,-199.18,2133.0,3.0,10.0,0.03,-2290.0,1.01,-0.09,-0.88,-0.69,0.8,0.0,0.17,0.35,6166.0,1684.72,24.6,32.15,3.0,0.95,0.28,1201.5,-1.09,0.64,-47.0,37.0,2193.25,-149.9,0.35,2.0,1403.81,6.15,5.0,3.26,1.08,-4.95,1.0,1148.5,2242.0,19.75,4.63,-0.92,3.0,1.0,4.33,0.23,0.13,0.03,0.89,0.06,0.0,0.44,1.0,0.16,764.27,-0.67,24.75,0.13,1.0,1665.35,-97.0,-1.41,-189.71,83.0,0.68,17.87,0.25,13.5,Very High
385.0,2.17,382.15,9.0,0.1,0.33,0.27,0.48,0.25,1600.0,1.4,-2077.0,-5173.0,1183.5,0.12,1.7,1075.71,0.74,4.0,44.0,0.0,-38.0,-1189.07,1035.5,3.0,8.0,-0.95,-2290.0,-0.07,-0.64,-0.38,-1.21,0.8,0.0,0.15,0.39,6400.0,1642.09,12.79,22.37,5.0,0.95,0.57,607.0,1.24,0.65,-25.0,37.0,788.0,-896.38,0.39,4.0,690.62,14.41,6.0,3.29,1.31,2.25,1.0,338.0,1813.0,15.0,10.87,-1.22,5.0,8.0,4.37,0.44,0.28,0.06,0.92,0.88,0.0,1.06,4.0,0.2,1426.97,-1.21,22.0,-0.39,3.0,1066.39,-16.0,-1.01,288.08,83.0,0.62,12.55,3.12,10.0,Very High
598.0,1.8,103.76,11.5,0.1,0.24,0.15,0.77,0.88,2434.0,0.81,-3407.0,-4056.0,1462.0,0.18,1.41,1187.63,0.19,5.0,38.0,0.0,-32.0,-1007.37,1143.0,4.0,7.0,9.36,-2540.0,0.69,-1.44,-2.2,4.47,0.66,0.0,0.18,0.21,6400.0,1629.61,10.64,18.88,13.0,0.88,0.17,619.0,3.45,0.56,-13.0,39.0,627.5,-775.31,0.42,7.0,832.46,13.57,25.0,3.19,-0.32,1.83,1.0,412.0,1514.0,14.0,10.45,1.61,4.0,10.0,4.15,0.9,0.09,0.02,0.98,0.03,0.0,1.19,7.0,0.08,1543.12,0.29,23.5,-1.29,1.0,1377.99,-16.0,-3.33,79.86,60.0,0.76,11.32,0.31,12.0,Very High
1341.0,0.94,-271.15,18.0,0.09,0.23,0.09,0.91,-0.01,2950.0,-0.31,-3571.0,-4056.0,2086.5,0.21,-0.61,1117.95,0.24,8.0,37.0,0.68,-55.0,-151.9,2856.0,1.0,9.0,-0.59,-3473.0,-0.06,-0.77,0.4,-0.64,0.57,0.18,0.19,0.05,6174.0,1802.15,15.08,35.96,6.0,0.88,0.14,988.0,0.19,0.11,-37.0,39.0,1446.0,-116.3,0.39,2.0,1218.4,-4.74,16.0,-1.83,-0.38,-0.8,1.0,650.0,2026.0,19.5,-3.63,-0.59,6.0,12.0,-2.39,-0.24,0.15,0.04,1.43,0.06,0.55,0.55,1.0,0.07,1460.18,-0.37,50.5,-0.14,2.0,1786.27,-90.0,-0.41,-207.6,60.0,0.8,16.48,-0.82,25.0,Very High
817.0,-0.11,-362.32,24.0,0.1,0.56,0.12,1.4,0.1,2950.0,0.13,-3571.0,-1895.0,1446.0,0.33,-6.78,821.64,0.85,13.0,37.0,0.47,-55.0,1258.64,1638.5,2.0,10.0,-1.02,-3473.0,-0.48,-0.39,0.1,-1.02,0.68,0.18,0.16,0.13,5381.0,1507.75,16.71,27.49,3.0,0.88,0.11,768.0,-0.64,0.38,-37.0,27.0,1797.0,958.65,0.4,2.0,1317.14,-34.04,8.0,-8.31,0.24,-8.9,2.0,901.0,2026.0,22.0,-25.93,-0.22,3.0,12.0,-10.9,0.22,0.46,0.1,2.38,0.19,0.55,1.08,1.0,0.05,1078.76,-0.74,34.0,0.81,2.0,1048.93,-90.0,-0.11,-275.96,55.0,0.69,13.51,0.25,17.0,Very High
846.0,-0.84,-697.49,24.0,0.14,0.47,0.17,2.27,-0.06,2621.0,0.13,-3786.0,-1318.0,1390.5,0.57,-5.47,998.08,0.7,12.0,26.0,0.35,-40.0,1203.42,1695.5,2.0,14.0,-1.01,-967.0,-0.83,-0.41,-0.58,-1.03,0.81,0.29,0.12,0.1,4662.0,1092.08,16.57,39.24,3.0,0.67,0.28,697.0,-0.62,0.31,-40.0,31.0,1664.5,902.57,0.57,1.0,1233.36,-13.99,3.0,-2.52,-1.21,-7.29,1.0,790.0,1561.0,27.5,-10.49,-1.24,3.0,8.0,-3.36,-0.09,0.31,0.07,2.94,0.15,1.47,0.06,1.0,0.12,1330.77,-0.47,74.5,-0.41,1.0,997.72,-83.0,0.59,-523.12,61.0,0.49,16.96,-0.62,34.0,Low
,,,,,,,,,,,,,,,,,,,,,,,,,,,,,,,,,,,,,,,,,,,,,,,,,,,,,,,,,,,,,,,,,,,,,,,,,,,,,,,,,,,,,,,,,,
332.5,-0.47,381.67,13.0,0.09,0.19,0.08,0.82,-0.01,3981.0,0.38,-7182.0,-3734.0,1737.75,0.2,1.03,1469.9,0.1,6.0,21.0,0.71,-25.0,46.01,738.25,5.0,12.0,1.53,-5884.0,-0.25,-0.65,0.53,1.41,0.53,0.28,0.2,0.04,7709.0,2230.76,10.72,20.89,6.0,0.94,0.13,845.5,1.24,-0.73,-48.0,48.0,2193.0,35.47,0.39,7.0,2228.77,7.72,8.0,2.01,-0.13,1.34,10.0,1098.0,4934.0,24.0,5.95,-1.2,6.0,7.0,2.61,-0.22,0.05,0.01,1.28,0.02,0.28,2.69,7.0,0.06,1906.9,-0.08,26.0,0.21,8.0,1081.18,-37.0,-0.54,294.2,62.0,0.82,20.47,4.05,11.0,Very High
771.0,2.08,-404.09,20.5,0.1,0.23,0.1,0.97,0.25,3981.0,-1.42,-8714.0,-5184.0,2511.5,0.22,0.2,1070.89,0.29,11.0,75.0,0.71,-78.0,-180.27,1862.0,3.0,15.0,0.24,-7679.0,-0.54,-1.35,-0.62,0.19,0.67,0.3,0.18,0.05,7709.0,3006.13,20.19,43.09,4.0,0.94,0.13,1259.0,2.1,-0.91,-42.0,48.0,2264.5,-138.74,0.42,6.0,2394.55,-11.06,15.0,-1.67,1.87,0.26,1.0,1036.0,3573.0,29.5,-8.51,0.13,4.0,5.0,-2.17,0.01,0.15,0.04,1.32,0.06,0.28,1.17,2.0,0.05,1391.43,-0.49,42.0,1.04,2.0,1606.17,-151.0,0.62,-311.0,53.0,0.78,21.08,0.65,18.0,Very High
1229.0,1.26,-450.79,22.0,0.11,0.32,0.12,0.81,-0.39,4064.0,-0.93,-8714.0,-6158.0,3741.5,0.19,-1.56,758.5,0.46,11.0,75.0,0.71,-78.0,124.07,2768.0,4.0,12.0,-0.01,-10747.0,-0.6,-0.6,-0.49,-0.02,0.67,0.26,0.2,0.07,7492.0,3869.98,22.03,46.74,3.0,1.0,0.21,1900.0,1.31,-0.89,-44.0,37.0,2694.0,94.5,0.47,4.0,2652.77,-12.05,15.0,-0.48,0.9,-2.05,2.0,1288.0,6000.0,25.0,-9.18,-1.24,3.0,7.0,-0.63,0.02,0.22,0.05,1.32,0.1,0.0,0.63,2.0,0.1,995.86,-0.76,47.5,0.1,2.0,2036.91,-151.0,0.48,-343.35,82.0,0.82,20.16,0.25,19.0,Very High
1164.5,0.56,337.19,21.0,0.12,0.26,0.16,0.65,-0.27,4382.0,0.01,-5900.0,-6158.0,3829.5,0.16,-1.87,691.46,0.3,11.0,46.0,0.77,-60.0,477.19,2036.25,2.0,10.0,0.19,-10747.0,0.42,0.42,-0.64,0.16,0.75,0.11,0.21,0.06,10043.0,3979.1,20.6,37.89,5.0,1.0,0.21,2002.5,0.86,-0.57,-44.0,40.0,2434.5,360.98,0.49,3.0,2604.68,5.64,12.0,2.84,0.54,-2.47,5.0,1247.0,8765.0,19.75,4.27,-0.39,5.0,8.0,3.76,-0.37,0.14,0.03,1.03,0.07,0.0,0.47,8.0,0.1,914.05,-0.75,26.0,-0.17,9.0,2062.24,-86.0,0.62,255.08,106.0,0.86,16.97,0.51,13.5,Very High
1171.0,0.14,-673.56,28.5,0.12,0.56,0.17,0.89,-0.31,4382.0,0.3,-5900.0,-4828.0,2159.5,0.21,-0.84,725.74,0.44,11.0,57.0,0.1,-57.0,-402.31,2363.5,3.0,9.0,20.25,-7092.0,0.99,0.87,3.89,20.38,0.86,0.11,0.19,0.12,10043.0,3065.96,22.31,38.01,11.0,0.97,0.22,1115.0,1.87,-0.11,-57.0,40.0,2739.0,-306.42,0.52,2.0,2512.03,-9.51,12.0,-3.66,0.92,-1.11,7.0,1448.0,8765.0,16.0,-7.24,-0.19,11.0,6.0,-4.8,-0.14,0.25,0.06,4.05,0.1,0.14,1.2,1.0,0.11,952.84,0.35,34.0,-0.34,7.0,1803.21,-91.0,-3.88,-513.02,106.0,0.8,18.51,-0.18,15.0,Very High
915.0,0.45,-1366.12,34.0,0.13,0.58,0.13,0.97,-0.23,9831.0,0.72,-4584.0,-7158.0,2710.5,0.23,-3.76,191.08,0.64,17.0,57.0,0.1,-89.0,-950.66,1816.5,1.0,13.0,14.5,-13189.0,0.18,0.72,3.08,14.86,0.86,0.26,0.19,0.13,9699.0,3914.12,29.9,49.7,6.0,0.99,0.15,1257.0,0.71,-0.72,-57.0,42.0,2156.0,-724.08,0.53,1.0,2011.82,-13.16,14.0,-4.98,2.36,-4.93,4.0,1071.0,5681.0,26.5,-10.02,0.15,6.0,8.0,-6.54,-0.41,0.32,0.07,4.05,0.14,0.05,1.75,9.0,0.06,250.87,1.27,47.0,-0.52,7.0,2702.25,-141.0,-3.02,-1040.51,165.0,0.78,19.39,4.1,26.0,Very High
1521.0,1.23,458.01,28.0,0.12,0.32,0.11,0.86,0.31,9831.0,0.05,-4422.0,-7158.0,3572.0,0.2,-2.52,471.52,0.39,13.0,57.0,0.69,-89.0,391.18,3262.5,9.0,10.0,-0.36,-13189.0,0.56,0.08,-0.22,-0.28,0.65,0.26,0.19,0.07,9699.0,4117.08,28.07,51.51,5.0,0.99,0.14,1776.0,-0.27,-0.69,-42.0,60.0,3210.5,297.94,0.51,2.0,2517.35,9.17,12.0,4.93,1.22,-3.31,2.0,1607.0,6842.0,19.5,6.98,0.14,5.0,8.0,6.48,-0.73,0.24,0.05,1.39,0.09,0.05,1.29,9.0,0.04,619.07,0.37,54.5,-1.08,1.0,3127.81,-141.0,0.21,348.85,165.0,0.81,20.0,1.19,25.0,Very High
1124.0,3.9,730.65,21.0,0.13,0.2,0.15,0.72,0.2,8521.0,-0.28,-6508.0,-7242.0,4191.0,0.17,-0.84,686.72,0.37,11.0,68.0,0.78,-109.0,682.35,2563.0,4.0,13.0,-0.91,-6706.0,0.19,-0.26,-0.25,-0.98,0.94,0.28,0.2,0.05,8428.0,3377.51,27.4,44.52,5.0,0.95,0.13,1890.0,0.31,-0.13,-48.0,60.0,2732.5,519.72,0.56,4.0,2727.91,1.74,8.0,3.91,-0.27,-1.1,1.0,1337.0,7314.0,25.5,1.33,0.14,5.0,14.0,5.13,-1.29,0.19,0.04,0.99,0.09,0.24,-0.34,1.0,0.07,901.61,-0.06,54.0,0.16,1.0,2397.45,-101.0,0.27,556.5,90.0,0.84,21.35,1.73,27.0,Very High
2150.0,2.03,-379.95,33.5,0.12,0.16,0.16,0.66,-0.26,6141.0,-0.27,-6508.0,-7242.0,6590.0,0.15,-3.12,573.3,0.14,14.0,68.0,0.79,-109.0,-388.41,4158.5,4.0,15.0,0.36,-8439.0,-0.59,0.47,-0.23,0.29,0.94,0.28,0.2,0.04,8400.0,4260.03,29.47,46.29,5.0,0.95,0.23,3310.0,-0.06,-0.33,-48.0,34.0,4039.5,-298.94,0.53,3.0,2926.35,-5.52,7.0,-0.79,-0.7,-4.05,1.0,2040.0,7637.0,28.5,-4.25,-0.32,5.0,7.0,-1.03,-0.69,0.08,0.02,0.96,0.03,0.24,-0.85,8.0,0.1,744.9,-0.08,66.5,0.55,8.0,2777.89,-101.0,0.32,-292.42,93.0,0.85,18.28,-0.55,32.0,Very High
1509.0,3.16,188.44,25.0,0.09,0.25,0.09,0.81,-0.39,6141.0,-0.36,-4996.0,-6140.0,4771.0,0.19,-2.61,838.68,0.32,15.0,56.0,0.72,-107.0,202.37,2849.5,5.0,10.0,0.59,-8439.0,0.64,0.69,-0.59,0.71,0.57,0.21,0.19,0.05,9465.0,3851.68,27.42,42.93,5.0,0.99,0.1,2577.0,0.54,-0.38,-47.0,47.0,3421.0,155.75,0.41,4.0,2754.49,8.14,27.0,0.12,-0.08,-3.39,6.0,1776.0,8160.0,20.5,6.27,-0.49,5.0,7.0,0.16,-1.2,0.15,0.03,1.26,0.07,0.03,-0.04,8.0,0.07,1089.71,-0.23,46.5,-0.13,8.0,2509.23,-99.0,0.53,145.03,98.0,0.82,16.69,0.11,21.0,Very High
918.0,3.42,13.32,20.5,0.1,0.36,0.18,0.66,1.49,7240.0,0.46,-5479.0,-6106.0,2576.5,0.16,4.51,490.78,0.46,10.0,113.0,0.0,-107.0,21.08,2095.0,3.0,14.5,2.68,-8080.0,4.09,0.64,-0.41,-0.66,0.72,0.0,0.18,0.28,9465.0,2733.22,32.42,45.65,4.0,0.99,0.18,1291.5,1.21,-0.01,-46.0,127.0,2941.0,15.86,0.39,4.0,2487.62,-2.66,6.0,2.5,1.33,5.99,2.0,1578.0,8160.0,28.5,-2.01,0.19,3.0,12.0,3.32,-0.46,0.27,0.05,1.26,0.11,0.0,1.99,1.0,0.09,652.14,0.18,39.5,-0.81,1.0,2377.33,-112.0,-2.08,10.03,169.0,0.73,27.89,0.93,20.5,Very High
1283.0,1.71,61.23,22.5,0.05,0.28,0.26,0.22,1.17,7240.0,1.08,-5479.0,-6106.0,2171.5,0.05,3.91,271.22,0.56,11.0,113.0,0.0,-89.0,-160.67,2666.0,4.0,14.0,-1.78,-8080.0,3.17,0.2,0.56,-1.6,0.72,0.0,0.08,0.43,4962.0,2093.36,32.39,47.63,3.0,0.95,0.48,1070.0,0.01,-1.2,-67.0,127.0,3049.0,-120.5,0.2,5.0,2171.54,0.82,3.0,-0.59,2.14,5.22,1.0,1534.0,6192.0,29.0,0.62,-1.44,3.0,12.0,-0.79,0.01,0.0,0.0,0.72,0.87,0.0,3.9,5.0,0.0,361.63,0.07,32.5,0.6,1.0,2354.77,-112.0,0.46,45.92,169.0,0.34,30.58,0.69,18.0,Very High
554.0,2.84,744.07,14.5,0.02,0.2,0.2,0.09,-0.75,4285.0,2.36,-2341.0,-3942.0,854.5,0.02,-4.25,567.11,0.0,8.0,58.0,0.0,-89.0,247.46,1054.5,3.0,7.0,0.39,-5843.0,3.46,0.94,2.0,2.31,0.71,0.0,0.05,0.36,2901.0,1077.91,23.41,33.18,3.0,0.99,0.0,400.0,2.71,-2.06,-67.0,43.0,1226.5,183.72,0.09,4.0,1383.05,7.59,3.0,-3.8,5.73,-5.72,3.0,573.0,6192.0,15.0,5.63,3.25,3.0,10.0,-5.12,-0.86,0.0,0.0,0.65,0.0,0.0,9.23,5.0,0.0,763.86,-0.18,21.0,2.18,3.0,1237.55,-45.0,1.54,552.42,146.0,0.18,17.52,1.72,11.0,Very High
214.5,6.48,312.6,6.0,0.07,0.63,0.22,0.67,0.37,1184.0,2.31,-936.0,-1160.0,625.5,0.17,-3.37,964.55,1.2,3.0,32.0,0.0,-15.0,-71.1,515.5,3.0,5.5,-1.53,-641.0,-0.57,0.07,0.36,-1.31,0.71,0.0,0.13,0.38,5556.0,808.53,8.75,14.12,3.0,0.99,0.39,316.0,-0.58,2.69,-13.0,15.0,1021.0,-52.96,0.26,2.0,652.87,0.74,3.0,-1.67,9.3,-4.52,2.0,449.5,1931.0,10.75,0.55,-0.94,3.0,1.0,-2.24,2.32,0.61,0.2,1.72,0.83,0.0,11.86,2.0,0.16,1294.87,0.17,17.0,0.13,1.0,424.69,-21.0,-0.5,232.86,76.0,0.51,6.7,0.74,8.0,Very High
369.0,0.48,314.41,9.75,0.09,0.35,0.04,1.43,0.57,1946.0,0.72,-936.0,-3760.0,776.5,0.34,-0.85,1268.79,0.49,5.0,32.0,0.58,-18.0,-80.04,718.25,2.0,6.0,-0.68,-641.0,-0.49,0.95,-0.73,-0.7,0.46,0.25,0.16,0.08,5556.0,1022.5,12.38,19.22,4.0,0.86,0.06,396.5,0.84,1.04,-10.0,23.0,926.75,-60.86,0.38,3.0,721.37,7.28,4.0,0.95,1.17,-1.12,2.0,466.5,2729.0,12.0,5.54,0.73,4.0,10.0,1.25,1.19,0.22,0.05,1.88,0.11,0.65,2.69,7.0,0.03,1668.54,-1.5,22.75,-0.56,5.0,900.12,-26.0,0.74,239.08,76.0,0.68,7.46,4.38,10.5,Very High
594.0,-0.38,430.33,18.0,0.09,0.8,0.2,1.16,0.52,1946.0,-0.4,-2051.0,-3760.0,1346.0,0.29,-1.89,1529.19,1.22,9.0,28.0,0.0,-32.0,-338.48,1259.5,3.0,8.0,-0.05,-760.0,-0.18,0.17,0.42,0.31,0.9,0.0,0.14,0.29,5048.0,1260.07,13.7,26.73,4.0,0.94,0.07,649.0,-0.66,0.38,-21.0,32.0,1604.0,-253.86,0.36,3.0,1058.19,2.78,27.0,1.21,-0.29,-2.52,1.0,743.0,2729.0,16.0,2.09,1.1,4.0,6.0,1.62,0.33,0.51,0.12,3.47,0.17,0.0,-0.12,6.0,0.04,2038.92,-0.8,41.5,-0.01,3.0,1177.14,-67.0,-1.09,322.74,60.0,0.58,11.02,0.34,20.0,Very High
740.0,0.01,-65.65,27.0,0.05,0.94,0.25,0.49,0.29,1443.0,0.16,-2051.0,-3098.0,2296.0,0.13,8.76,1138.77,0.58,15.0,78.0,0.0,-32.0,-124.98,1411.0,1.0,12.0,-1.04,-1158.0,-1.03,0.53,2.32,4.5,0.9,0.0,0.07,0.37,5048.0,1534.46,25.34,27.66,3.0,0.94,0.38,1050.0,-0.4,0.26,-21.0,39.0,1424.5,-90.95,0.17,1.0,1094.76,-11.96,3.0,4.48,-0.68,12.04,3.0,695.0,2508.0,25.0,-8.7,0.48,10.0,1.0,6.15,0.74,0.0,0.0,3.76,0.72,0.0,-0.58,1.0,0.0,1564.84,-0.71,41.0,1.23,1.0,1063.56,-68.0,0.91,-47.77,52.0,0.26,14.78,0.1,21.0,Very High
612.5,-0.66,-535.16,56.75,0.01,0.63,0.1,0.12,0.04,1381.0,-0.29,-2081.0,-1583.0,1729.5,0.03,-0.66,208.79,0.0,31.0,78.0,0.0,-85.0,158.32,1267.0,1.0,14.5,33.81,-1544.0,-0.99,0.03,5.22,25.46,0.67,0.0,0.0,0.04,3340.0,1176.36,39.88,23.13,2.0,0.3,0.0,806.5,-0.63,0.65,-33.0,39.0,1233.5,112.75,0.02,1.0,753.25,-10.77,2.0,0.59,-1.09,-0.93,2.0,557.0,1358.0,29.25,-7.67,32.41,2.0,1.0,0.82,-0.14,0.0,0.0,3.76,0.0,0.0,-0.62,6.0,0.0,293.16,0.02,43.0,5.72,3.0,715.43,-68.0,5.83,-381.14,30.0,0.01,18.71,-1.06,21.0,Medium
,,,,,,,,,,,,,,,,,,,,,,,,,,,,,,,,,,,,,,,,,,,,,,,,,,,,,,,,,,,,,,,,,,,,,,,,,,,,,,,,,,,,,,,,,,
1646.0,0.05,-1165.03,25.25,0.09,0.19,0.12,0.74,-0.29,5751.0,-0.13,-5015.0,-5792.0,4243.75,0.18,-3.59,754.34,0.27,13.0,31.0,0.78,-56.0,-310.32,3269.5,4.0,12.5,2.9,-6795.0,-0.82,-0.04,-1.4,2.83,0.74,0.23,0.2,0.04,6652.0,3041.23,17.57,41.71,5.0,1.0,0.15,2127.5,-0.66,-0.46,-40.0,28.0,2816.5,-239.2,0.4,3.0,1869.34,-10.05,5.0,-1.59,-0.8,-4.66,1.0,1383.5,3311.0,25.0,-7.75,0.62,5.0,8.0,-2.06,-0.5,0.09,0.02,1.0,0.06,0.0,-0.22,7.0,0.07,978.6,0.04,60.25,0.85,1.0,2397.29,-99.0,1.39,-898.04,69.0,0.84,16.55,-0.43,30.0,Very High
1529.0,0.58,557.2,24.0,0.1,0.29,0.14,0.74,0.59,5751.0,0.57,-5015.0,-4886.0,3205.5,0.18,-1.02,1081.06,0.36,12.0,45.0,0.0,-64.0,629.13,2993.5,5.0,10.0,14.47,-6795.0,0.86,-0.09,-0.96,0.62,0.74,0.0,0.19,0.18,8165.0,2980.96,19.34,32.52,3.0,1.0,0.14,1520.0,0.24,-0.54,-29.0,61.0,2545.5,479.18,0.41,3.0,2186.79,24.21,12.0,5.16,0.39,-1.33,1.0,1279.0,6088.0,20.5,18.44,1.77,4.0,8.0,6.77,-0.38,0.2,0.04,1.12,0.09,0.0,0.43,7.0,0.08,1419.35,-0.17,39.0,-0.27,1.0,2078.39,-51.0,-3.81,424.39,128.0,0.79,17.76,-0.21,19.0,Very High
1702.0,-0.2,70.36,28.0,0.11,0.99,0.62,1.02,0.4,4452.0,-0.06,-3714.0,-5374.0,2813.5,0.25,-2.21,957.09,0.47,15.0,45.0,0.0,-64.0,-383.45,3419.5,1.0,17.0,-0.26,-4214.0,-0.05,0.49,2.32,5.18,4.46,0.0,0.15,0.33,8165.0,2713.53,21.11,57.95,5.0,0.92,0.11,1454.0,-0.86,0.19,-51.0,61.0,3971.5,-289.06,0.43,2.0,2541.85,-10.04,20.0,-3.97,-0.6,-2.93,1.0,1823.0,6088.0,31.5,-7.57,36.68,13.0,8.0,-5.27,-0.25,0.13,0.03,4.46,0.05,0.0,-0.18,1.0,0.05,1269.61,0.08,84.5,5.95,1.0,2235.89,-126.0,-1.27,53.04,128.0,0.63,24.68,-0.86,37.0,Very High
1808.0,0.1,-1077.8,26.0,0.12,1.0,0.61,1.0,0.28,4326.0,0.87,-4077.0,-10066.0,4451.5,0.25,-2.8,866.8,0.47,14.0,63.0,0.0,-54.0,-1378.39,3564.5,1.0,14.0,0.56,-6548.0,-0.39,0.92,2.33,5.16,4.46,0.0,0.17,0.31,6724.0,2952.86,21.11,61.57,3.0,1.0,0.11,2233.0,0.66,-0.27,-51.0,41.0,2696.0,-1039.09,0.48,12.0,1950.37,-27.12,20.0,-9.41,0.77,-3.71,1.0,1419.0,5164.0,27.0,-20.45,37.21,12.0,8.0,-12.48,-0.02,0.13,0.03,4.46,0.06,0.0,-0.57,5.0,0.06,1149.84,-0.35,77.0,6.01,8.0,2742.33,-126.0,-1.5,-812.49,154.0,0.67,20.48,0.63,40.0,Very High
1504.0,2.32,310.96,26.0,0.12,0.29,0.11,0.73,-0.37,6444.0,0.04,-4077.0,-10066.0,3146.0,0.17,0.17,883.99,0.39,13.0,101.0,0.75,-55.0,466.05,2950.5,5.0,9.0,0.29,-6548.0,0.45,0.01,-0.82,0.28,0.78,0.37,0.2,0.06,8823.0,2766.32,22.58,54.78,5.0,1.0,0.14,1613.0,-0.31,-0.34,-45.0,47.0,2450.0,356.82,0.52,13.0,2096.81,15.92,10.0,3.35,0.3,0.22,2.0,1231.0,5373.0,16.5,12.19,-0.44,5.0,13.0,4.37,0.24,0.2,0.04,1.13,0.08,0.0,0.25,1.0,0.06,1154.61,-1.07,55.5,0.74,1.0,3084.41,-106.0,0.8,238.08,154.0,0.84,17.37,1.61,28.0,Very High
