time,/ext_usb_camera/image/compressed,robogame/imu_state,robogame/imu_state.linear_acc.x,robogame/imu_state.linear_acc.y,robogame/imu_state.linear_acc.z,robogame/imu_state.gyro.z,robogame/imu_state.gyro.x,robogame/imu_state.gyro.y
0.0,,,-562.0,-213.0,2264.0,3.0,8.0,-1.0
0.020588159561157227,,,-609.0,-183.0,1932.0,2.0,5.0,-11.0
0.040969133377075195,,,-557.0,-216.0,1780.0,3.0,4.0,-15.0
0.061515092849731445,,,-496.0,-248.0,1691.0,5.0,2.0,-18.0
0.08186817169189453,,,-273.0,-282.0,1645.0,9.0,0.0,-21.0
0.10240864753723145,,,-154.0,-285.0,1671.0,10.0,0.0,-18.0
0.12283730506896973,,,-83.0,-253.0,1708.0,10.0,1.0,-14.0
0.1433582305908203,,,-113.0,-37.0,1824.0,8.0,4.0,-7.0
0.16376996040344238,,,-185.0,90.0,1877.0,6.0,5.0,-5.0
0.18430614471435547,,,-273.0,189.0,1901.0,4.0,5.0,-5.0
0.2048351764678955,,,-359.0,270.0,1892.0,1.0,3.0,-6.0
0.22528719902038574,,,-347.0,256.0,1869.0,-1.0,2.0,-7.0
0.24570512771606445,,,-194.0,146.0,1804.0,-2.0,1.0,-7.0
0.2663857936859131,,,-84.0,99.0,1782.0,-2.0,0.0,-5.0
0.2866783142089844,,,27.0,71.0,1764.0,-3.0,0.0,-2.0
0.30724406242370605,,,150.0,16.0,1720.0,-3.0,1.0,3.0
0.3278689384460449,,,188.0,-7.0,1729.0,-2.0,2.0,5.0
0.34818100929260254,,,199.0,-6.0,1757.0,-1.0,3.0,8.0
0.36869096755981445,,,89.0,-21.0,1706.0,1.0,3.0,12.0
0.38916993141174316,,,-1.0,-20.0,1653.0,2.0,4.0,13.0
0.409557580947876,,,-109.0,12.0,1602.0,2.0,5.0,13.0
0.4301595687866211,,,-268.0,165.0,1567.0,3.0,5.0,9.0
0.45049500465393066,,,-303.0,249.0,1596.0,3.0,4.0,6.0
0.4710714817047119,,,-279.0,276.0,1675.0,3.0,2.0,-1.0
0.49149489402770996,,,-207.0,231.0,1720.0,3.0,1.0,-2.0
0.5120689868927002,,,-134.0,177.0,1753.0,3.0,1.0,-2.0
0.5326683521270752,,,-2.0,78.0,1780.0,2.0,1.0,2.0
0.5529689788818359,,,42.0,38.0,1790.0,1.0,2.0,4.0
0.573390007019043,,,70.0,16.0,1803.0,1.0,1.0,5.0
0.5939292907714844,,,59.0,37.0,1774.0,1.0,1.0,7.0
0.6144647598266602,,,34.0,73.0,1752.0,1.0,1.0,7.0
0.6349103450775146,,,6.0,101.0,1733.0,0.0,1.0,7.0
0.6553175449371338,,,-13.0,115.0,1722.0,-1.0,1.0,4.0
0.6757967472076416,,,3.0,99.0,1734.0,-1.0,0.0,3.0
0.6962993144989014,,,17.0,79.0,1747.0,-1.0,0.0,3.0
0.7168569564819336,,,67.0,34.0,1742.0,-1.0,0.0,3.0
0.7373702526092529,,,79.0,5.0,1737.0,-1.0,0.0,3.0
0.7578167915344238,,,92.0,-43.0,1733.0,-1.0,0.0,3.0
0.7783834934234619,,,98.0,-63.0,1732.0,-1.0,-1.0,3.0
0.7987082004547119,,,110.0,-80.0,1723.0,-1.0,-1.0,4.0
0.8193473815917969,,,155.0,-82.0,1723.0,-1.0,-2.0,4.0
0.8397331237792969,,,163.0,-71.0,1735.0,-1.0,-2.0,4.0
0.8601429462432861,,,163.0,-46.0,1711.0,-1.0,-2.0,5.0
0.8805887699127197,,,146.0,-38.0,1667.0,-2.0,-1.0,4.0
0.897057294845581,,,126.0,-44.0,1659.0,-2.0,-1.0,4.0
0.9176547527313232,,,113.0,-58.0,1646.0,-2.0,-1.0,3.0
0.9380877017974854,,,103.0,-57.0,1647.0,-2.0,-1.0,1.0
0.9585397243499756,,,119.0,-44.0,1657.0,-2.0,-1.0,1.0
0.9789009094238281,,,168.0,-67.0,1684.0,-3.0,-1.0,1.0
0.9995605945587158,,,177.0,-103.0,1688.0,-3.0,-1.0,1.0
1.0199627876281738,,,176.0,-119.0,1688.0,-3.0,-1.0,2.0
1.0403995513916016,,,149.0,-109.0,1676.0,-3.0,-1.0,2.0
1.060877799987793,,,143.0,-93.0,1684.0,-3.0,-1.0,1.0
1.0814189910888672,,,145.0,-80.0,1699.0,-3.0,-1.0,1.0
1.1018030643463135,,,154.0,-47.0,1722.0,-3.0,-1.0,-1.0
1.1224372386932373,,,156.0,-43.0,1720.0,-3.0,-1.0,-1.0
1.142831563949585,,,165.0,-56.0,1713.0,-3.0,-1.0,-2.0
1.1633059978485107,,,217.0,-111.0,1704.0,-3.0,-1.0,-1.0
1.1837565898895264,,,225.0,-124.0,1716.0,-3.0,-1.0,-1.0
1.2041385173797607,,,204.0,-113.0,1723.0,-3.0,-1.0,-1.0
1.2246699333190918,,,171.0,-107.0,1734.0,-3.0,-1.0,-2.0
1.245110273361206,,,162.0,-88.0,1727.0,-3.0,-2.0,-3.0
1.2655730247497559,,,216.0,-89.0,1717.0,-3.0,-1.0,-2.0
1.2862303256988525,,,246.0,-101.0,1726.0,-2.0,-1.0,-2.0
1.3066163063049316,,,257.0,-103.0,1739.0,-2.0,-1.0,-2.0
1.3270986080169678,,,249.0,-83.0,1751.0,-2.0,-1.0,-2.0
1.3474879264831543,,,246.0,-84.0,1756.0,-2.0,-1.0,-2.0
1.368225336074829,,,246.0,-103.0,1765.0,-2.0,-1.0,-1.0
1.3885886669158936,,,239.0,-126.0,1759.0,-2.0,-1.0,1.0
1.4089884757995605,,,230.0,-125.0,1769.0,-2.0,-1.0,1.0
1.4295449256896973,,,201.0,-119.0,1789.0,-2.0,-1.0,2.0
1.4500195980072021,,,153.0,-128.0,1796.0,-1.0,-2.0,1.0
1.4703705310821533,,,136.0,-124.0,1774.0,-1.0,-2.0,1.0
1.4909822940826416,,,119.0,-116.0,1755.0,-1.0,-2.0,1.0
1.5113246440887451,,,107.0,-105.0,1733.0,-1.0,-1.0,1.0
1.5318214893341064,,,97.0,-110.0,1713.0,-1.0,-1.0,1.0
1.55228590965271,,,88.0,-87.0,1701.0,-1.0,-1.0,1.0
1.576857328414917,,,80.0,-64.0,1724.0,-1.0,-2.0,1.0
1.5974750518798828,,,78.0,-49.0,1742.0,-1.0,-2.0,1.0
1.6138715744018555,,,75.0,-49.0,1733.0,-1.0,-2.0,1.0
1.6343448162078857,,,61.0,-45.0,1723.0,-1.0,-2.0,0.0
1.6547484397888184,,,23.0,6.0,1703.0,-1.0,-2.0,-1.0
1.675365686416626,,,33.0,34.0,1712.0,-1.0,-1.0,-2.0
1.6958706378936768,,,70.0,52.0,1722.0,-2.0,-1.0,-2.0
1.7161705493927002,,,142.0,2.0,1726.0,-3.0,-1.0,-1.0
1.7366864681243896,,,162.0,-37.0,1723.0,-3.0,-1.0,-1.0
1.7572379112243652,,,180.0,-61.0,1731.0,-2.0,-1.0,0.0
1.777587890625,,,198.0,-77.0,1750.0,-2.0,-1.0,1.0
1.7980895042419434,,,193.0,-79.0,1757.0,-2.0,-1.0,1.0
1.8185703754425049,,,183.0,-69.0,1768.0,-2.0,-2.0,1.0
1.839076280593872,,,146.0,-6.0,1785.0,-2.0,-2.0,1.0
1.8595855236053467,,,138.0,4.0,1790.0,-3.0,-2.0,0.0
1.8801379203796387,,,182.0,-22.0,1824.0,-3.0,-2.0,0.0
1.9004971981048584,,,191.0,-54.0,1810.0,-2.0,-2.0,1.0
1.9209935665130615,,,176.0,-80.0,1765.0,-2.0,-2.0,1.0
1.941448450088501,,,78.0,-84.0,1679.0,0.0,-1.0,0.0
1.9618747234344482,,,39.0,-66.0,1654.0,0.0,0.0,0.0
1.9824378490447998,,,16.0,-50.0,1649.0,1.0,0.0,0.0
2.002941370010376,,,-11.0,-18.0,1641.0,1.0,1.0,0.0
2.023343324661255,,,-34.0,3.0,1645.0,1.0,1.0,-1.0
2.04379940032959,,,-62.0,27.0,1669.0,1.0,1.0,-1.0
2.0642638206481934,,,-60.0,45.0,1739.0,0.0,1.0,-1.0
2.084758996963501,,,-64.0,29.0,1757.0,0.0,1.0,-1.0
2.1053521633148193,,,-73.0,16.0,1736.0,-1.0,0.0,-1.0
2.125760793685913,,,-30.0,36.0,1767.0,-3.0,0.0,-1.0
2.1462743282318115,,,49.0,65.0,1838.0,-4.0,-1.0,-1.0
2.1666879653930664,,,233.0,34.0,1908.0,-5.0,-1.0,-1.0
2.1872127056121826,,,260.0,-19.0,1863.0,-4.0,-1.0,0.0
2.2076849937438965,,,247.0,-58.0,1811.0,-3.0,0.0,0.0
2.228241205215454,,,194.0,-103.0,1751.0,0.0,0.0,0.0
2.2486536502838135,,,180.0,-107.0,1724.0,1.0,-1.0,0.0
2.269169330596924,,,153.0,-84.0,1706.0,1.0,-1.0,0.0
2.2896499633789062,,,95.0,-26.0,1695.0,1.0,-1.0,1.0
2.3101747035980225,,,68.0,-19.0,1695.0,0.0,-1.0,2.0
2.3305857181549072,,,45.0,-28.0,1709.0,0.0,-1.0,2.0
2.350999116897583,,,25.0,-23.0,1731.0,-1.0,0.0,2.0
2.371586561203003,,,3.0,-5.0,1753.0,-1.0,0.0,2.0
2.3920228481292725,,,-58.0,20.0,1797.0,-1.0,0.0,1.0
2.4126811027526855,,,-66.0,20.0,1801.0,-2.0,0.0,0.0
2.432936906814575,,,-48.0,17.0,1794.0,-2.0,-1.0,-1.0
2.453383684158325,,,8.0,-10.0,1758.0,-1.0,-1.0,-1.0
2.473867416381836,,,29.0,-33.0,1753.0,-1.0,0.0,-1.0
2.49442458152771,,,47.0,-41.0,1752.0,-1.0,-1.0,-1.0
2.5149407386779785,,,45.0,-31.0,1760.0,0.0,-1.0,0.0
2.535290479660034,,,37.0,-15.0,1758.0,0.0,0.0,0.0
2.555781364440918,,,32.0,-6.0,1745.0,-1.0,0.0,0.0
2.576280355453491,,,40.0,20.0,1745.0,-1.0,0.0,-1.0
2.5968210697174072,,,62.0,23.0,1755.0,-1.0,0.0,-2.0
2.617306709289551,,,82.0,-11.0,1766.0,-1.0,0.0,-1.0
2.6377766132354736,,,92.0,-39.0,1771.0,-1.0,0.0,-1.0
2.6583688259124756,,,92.0,-62.0,1769.0,-1.0,0.0,0.0
2.678760290145874,,,108.0,-76.0,1781.0,0.0,0.0,1.0
2.695070505142212,,,106.0,-60.0,1787.0,0.0,-1.0,1.0
2.71561598777771,,,91.0,-44.0,1790.0,0.0,-1.0,1.0
2.7361090183258057,,,56.0,-35.0,1781.0,0.0,-1.0,1.0
2.756617546081543,,,51.0,-29.0,1777.0,0.0,-1.0,1.0
2.777022123336792,,,40.0,-25.0,1775.0,0.0,-1.0,1.0
2.797478437423706,,,25.0,0.0,1771.0,0.0,-1.0,1.0
2.818021535873413,,,16.0,15.0,1761.0,0.0,-1.0,1.0
2.838414430618286,,,11.0,24.0,1750.0,0.0,-1.0,0.0
2.858954668045044,,,1.0,11.0,1747.0,0.0,0.0,0.0
2.879420280456543,,,1.0,5.0,1743.0,0.0,0.0,0.0
2.89994740486145,,,14.0,-9.0,1742.0,-1.0,0.0,-1.0
2.920377016067505,,,34.0,-27.0,1752.0,-1.0,0.0,0.0
2.9409353733062744,,,36.0,-32.0,1754.0,-1.0,0.0,0.0
2.961308002471924,,,25.0,-12.0,1748.0,-1.0,-1.0,-1.0
2.9818432331085205,,,27.0,-7.0,1750.0,-1.0,-1.0,-1.0
3.002331495285034,,,30.0,-12.0,1766.0,-1.0,-1.0,0.0
3.0227408409118652,,,49.0,-18.0,1786.0,-1.0,-1.0,0.0
3.0432798862457275,,,54.0,-15.0,1782.0,-1.0,-1.0,0.0
3.063866376876831,,,41.0,-13.0,1769.0,-1.0,-1.0,0.0
3.084341049194336,,,24.0,-5.0,1760.0,-1.0,0.0,-1.0
3.104762077331543,,,26.0,-13.0,1770.0,-1.0,-1.0,-1.0
3.1251566410064697,,,55.0,-25.0,1745.0,0.0,-1.0,-1.0
3.1457619667053223,,,70.0,-33.0,1740.0,0.0,-1.0,-1.0
3.166067600250244,,,83.0,-29.0,1731.0,0.0,0.0,-1.0
3.1865315437316895,,,84.0,-19.0,1719.0,-1.0,0.0,-1.0
3.2071192264556885,,,89.0,-15.0,1722.0,-1.0,0.0,-1.0
3.2275681495666504,,,89.0,-21.0,1729.0,-1.0,0.0,-1.0
3.248047351837158,,,84.0,-14.0,1748.0,0.0,0.0,-1.0
3.268491744995117,,,85.0,-12.0,1759.0,0.0,0.0,0.0
3.2890303134918213,,,82.0,-24.0,1769.0,-1.0,0.0,0.0
3.3094592094421387,,,57.0,-44.0,1787.0,-1.0,0.0,0.0
3.329939365386963,,,38.0,-42.0,1773.0,-1.0,0.0,0.0
3.350459098815918,,,31.0,-31.0,1758.0,0.0,0.0,-1.0
3.3709795475006104,,,26.0,-11.0,1753.0,-1.0,-1.0,0.0
3.3914012908935547,,,27.0,0.0,1752.0,-1.0,-1.0,-1.0
3.411925792694092,,,44.0,-1.0,1751.0,-1.0,0.0,-1.0
3.4323911666870117,,,45.0,2.0,1752.0,-1.0,0.0,-1.0
3.452857494354248,,,43.0,-1.0,1747.0,-1.0,0.0,-1.0
3.473353147506714,,,63.0,2.0,1753.0,0.0,0.0,-1.0
3.4938483238220215,,,66.0,-5.0,1749.0,0.0,0.0,-1.0
3.5143818855285645,,,59.0,-4.0,1749.0,-1.0,0.0,-1.0
3.5347352027893066,,,54.0,-14.0,1761.0,-1.0,0.0,-1.0
3.555325746536255,,,65.0,-35.0,1779.0,-1.0,0.0,-1.0
3.5757362842559814,,,69.0,-53.0,1784.0,0.0,-1.0,0.0
3.5962910652160645,,,36.0,-40.0,1771.0,0.0,-1.0,-1.0
3.6167221069335938,,,30.0,-29.0,1775.0,0.0,-1.0,-1.0
3.6372547149658203,,,43.0,-27.0,1756.0,0.0,-1.0,-1.0
3.657614231109619,,,50.0,-14.0,1747.0,0.0,-1.0,-1.0
3.678314447402954,,,44.0,-2.0,1748.0,0.0,-1.0,-1.0
3.698610305786133,,,47.0,-4.0,1752.0,-1.0,-1.0,-1.0
3.71909236907959,,,60.0,-8.0,1754.0,-1.0,-1.0,-1.0
3.739555597305298,,,66.0,-11.0,1770.0,-1.0,-1.0,0.0
3.7600526809692383,,,61.0,-29.0,1792.0,-1.0,-1.0,0.0
3.7763209342956543,,,65.0,-19.0,1793.0,-1.0,-1.0,-1.0
3.797055244445801,,,78.0,-4.0,1818.0,-1.0,-1.0,-1.0
3.8174915313720703,,,101.0,-2.0,1868.0,-2.0,-2.0,0.0
3.8378946781158447,,,102.0,-12.0,1893.0,-2.0,-2.0,1.0
3.8583927154541016,,,90.0,-13.0,1892.0,-2.0,-3.0,1.0
3.878790855407715,,,81.0,0.0,1889.0,-3.0,-4.0,0.0
3.8993635177612305,,,80.0,11.0,1897.0,-3.0,-4.0,0.0
3.9197754859924316,,,90.0,14.0,1908.0,-3.0,-6.0,-1.0
3.9402334690093994,,,84.0,1.0,1909.0,-4.0,-7.0,-2.0
3.9606878757476807,,,91.0,-3.0,1929.0,-4.0,-8.0,-2.0
3.981250524520874,,,145.0,33.0,1970.0,-4.0,-9.0,-1.0
4.001645803451538,,,183.0,66.0,1941.0,-5.0,-9.0,0.0
4.022106409072876,,,212.0,100.0,1889.0,-6.0,-9.0,1.0
4.042654991149902,,,270.0,157.0,1725.0,-8.0,-7.0,4.0
4.0631654262542725,,,294.0,189.0,1671.0,-8.0,-7.0,4.0
4.087727069854736,,,318.0,229.0,1623.0,-9.0,-6.0,3.0
4.108134984970093,,,324.0,227.0,1627.0,-9.0,-6.0,2.0
4.128584623336792,,,331.0,215.0,1643.0,-10.0,-6.0,1.0
4.149181365966797,,,366.0,155.0,1729.0,-11.0,-6.0,1.0
4.169607400894165,,,409.0,115.0,1785.0,-11.0,-6.0,1.0
4.190196514129639,,,460.0,75.0,1834.0,-11.0,-7.0,2.0
4.210627317428589,,,625.0,74.0,1914.0,-12.0,-8.0,2.0
4.231156826019287,,,721.0,94.0,1905.0,-14.0,-9.0,3.0
4.251507759094238,,,822.0,70.0,1852.0,-16.0,-10.0,4.0
4.271962642669678,,,928.0,-10.0,1753.0,-17.0,-12.0,7.0
4.2924463748931885,,,1196.0,-194.0,1509.0,-20.0,-15.0,14.0
4.312968730926514,,,1506.0,-128.0,1400.0,-19.0,-17.0,27.0
4.333541631698608,,,1586.0,16.0,1470.0,-18.0,-18.0,34.0
4.354084014892578,,,1586.0,200.0,1545.0,-16.0,-19.0,38.0
4.3744056224823,,,1358.0,585.0,1677.0,-12.0,-20.0,42.0
4.3948681354522705,,,1148.0,727.0,1701.0,-11.0,-21.0,41.0
4.415334463119507,,,924.0,829.0,1743.0,-9.0,-20.0,38.0
4.435834646224976,,,356.0,820.0,1590.0,-6.0,-17.0,33.0
4.456294298171997,,,0.0,728.0,1382.0,-3.0,-15.0,29.0
4.476812839508057,,,-346.0,727.0,1207.0,0.0,-11.0,23.0
4.4931793212890625,,,-632.0,1143.0,1354.0,-1.0,-6.0,-1.0
4.513646841049194,,,-416.0,1362.0,1575.0,-6.0,-7.0,-16.0
4.534127473831177,,,512.0,1170.0,1692.0,-17.0,-12.0,-33.0
4.5546770095825195,,,1039.0,706.0,1548.0,-20.0,-14.0,-33.0
4.5751330852508545,,,1548.0,145.0,1325.0,-18.0,-13.0,-25.0
4.595752716064453,,,2334.0,-690.0,1045.0,-8.0,-9.0,3.0
4.616378307342529,,,2530.0,-785.0,1075.0,-4.0,-9.0,18.0
4.636792898178101,,,2611.0,-716.0,1143.0,-2.0,-10.0,32.0
4.657028913497925,,,2520.0,-145.0,1377.0,5.0,-11.0,55.0
4.677520751953125,,,2313.0,394.0,1578.0,9.0,-13.0,61.0
4.697970390319824,,,2002.0,1103.0,1863.0,13.0,-14.0,63.0
4.71847128868103,,,1050.0,2666.0,2769.0,11.0,-19.0,50.0
4.738980531692505,,,481.0,3164.0,3112.0,4.0,-21.0,36.0
4.759457588195801,,,-280.0,3128.0,3043.0,-8.0,-27.0,0.0
4.779804229736328,,,-335.0,2880.0,2768.0,-9.0,-29.0,-16.0
4.80043888092041,,,-259.0,2626.0,2442.0,-7.0,-31.0,-26.0
4.820850610733032,,,28.0,2273.0,1728.0,1.0,-31.0,-34.0
4.841297388076782,,,212.0,2210.0,1412.0,5.0,-31.0,-35.0
4.861818313598633,,,365.0,2193.0,1114.0,6.0,-30.0,-34.0
4.882337331771851,,,337.0,1857.0,658.0,4.0,-29.0,-34.0
4.90286111831665,,,268.0,1415.0,739.0,6.0,-33.0,-38.0
4.923366546630859,,,258.0,912.0,1067.0,12.0,-40.0,-46.0
4.943734407424927,,,160.0,161.0,3261.0,21.0,-59.0,-80.0
4.964192867279053,,,-299.0,-840.0,3744.0,16.0,-40.0,-93.0
4.984673738479614,,,-583.0,-2102.0,4025.0,23.0,-4.0,-83.0
5.00524377822876,,,146.0,-3080.0,6128.0,63.0,14.0,-36.0
5.025652647018433,,,-194.0,-2414.0,6850.0,68.0,12.0,-18.0
5.046051979064941,,,-2427.0,619.0,7633.0,31.0,14.0,-33.0
5.066583633422852,,,-3603.0,1691.0,7467.0,8.0,10.0,-58.0
5.087125778198242,,,-4158.0,1915.0,6742.0,-7.0,6.0,-76.0
5.107562303543091,,,-3707.0,1403.0,4556.0,-17.0,3.0,-98.0
5.128186464309692,,,-3058.0,1122.0,3417.0,-22.0,3.0,-108.0
5.148741722106934,,,-2223.0,800.0,2345.0,-28.0,4.0,-116.0
5.168959617614746,,,-162.0,-391.0,715.0,-27.0,5.0,-111.0
5.189687967300415,,,818.0,-1296.0,18.0,-19.0,8.0,-95.0
5.209929943084717,,,1654.0,-2202.0,-738.0,-8.0,12.0,-74.0
5.230480670928955,,,2790.0,-3148.0,-2412.0,15.0,21.0,-33.0
5.250960111618042,,,3177.0,-3154.0,-3303.0,20.0,25.0,-15.0
5.2713987827301025,,,4056.0,-2880.0,-4623.0,19.0,35.0,16.0
5.291852712631226,,,4272.0,-2711.0,-4358.0,20.0,36.0,28.0
5.312558889389038,,,3746.0,-2304.0,-3124.0,21.0,24.0,36.0
5.333087921142578,,,2068.0,435.0,646.0,36.0,-9.0,38.0
5.353266477584839,,,897.0,3747.0,2560.0,49.0,-5.0,37.0
5.373782396316528,,,-1636.0,6397.0,3330.0,38.0,-5.0,26.0
5.3942787647247314,,,-4892.0,2756.0,2111.0,-4.0,7.0,-3.0
5.414752721786499,,,-5166.0,-198.0,1342.0,3.0,24.0,4.0
5.4353249073028564,,,-5193.0,-1874.0,1172.0,13.0,20.0,9.0
5.455899477005005,,,-4048.0,-618.0,3521.0,16.0,-12.0,10.0
5.476170063018799,,,-3156.0,1828.0,5868.0,13.0,-15.0,12.0
5.496734142303467,,,-3479.0,3022.0,6602.0,-19.0,-8.0,8.0
5.517119407653809,,,-3895.0,697.0,6257.0,-52.0,10.0,-16.0
5.537619113922119,,,-3351.0,-476.0,6452.0,-41.0,5.0,-32.0
5.553940773010254,,,-2746.0,-937.0,6735.0,-27.0,-4.0,-42.0
5.574482440948486,,,-2179.0,-590.0,6638.0,-26.0,-21.0,-51.0
5.594979286193848,,,-1877.0,-700.0,6158.0,-31.0,-23.0,-54.0
5.615462779998779,,,-1269.0,-1339.0,5113.0,-30.0,-22.0,-54.0
5.636069297790527,,,-1133.0,-1458.0,4680.0,-27.0,-22.0,-58.0
5.656543731689453,,,-1076.0,-1414.0,4283.0,-25.0,-24.0,-62.0
5.676868438720703,,,-1105.0,-1305.0,3455.0,-17.0,-26.0,-65.0
5.697413206100464,,,-1087.0,-1321.0,3085.0,-12.0,-25.0,-63.0
5.71789288520813,,,-1025.0,-1339.0,2791.0,-7.0,-24.0,-59.0
5.738393068313599,,,-895.0,-1191.0,2344.0,1.0,-21.0,-46.0
5.758768796920776,,,-786.0,-913.0,2177.0,5.0,-20.0,-40.0
5.779262542724609,,,-373.0,88.0,1965.0,13.0,-14.0,-28.0
5.799760103225708,,,94.0,1016.0,2204.0,18.0,-12.0,-25.0
5.820291996002197,,,554.0,2182.0,2581.0,20.0,-13.0,-21.0
5.840764284133911,,,532.0,3661.0,2266.0,5.0,-18.0,-17.0
5.861247301101685,,,363.0,3675.0,1859.0,-3.0,-15.0,-18.0
5.881566286087036,,,265.0,3582.0,1560.0,-4.0,-8.0,-18.0
5.90222430229187,,,195.0,3712.0,1050.0,-1.0,5.0,-4.0
5.922621011734009,,,166.0,3823.0,844.0,-3.0,10.0,7.0
5.9431376457214355,,,103.0,3829.0,654.0,-6.0,13.0,18.0
5.963616609573364,,,-157.0,3575.0,185.0,-9.0,18.0,28.0
5.984102010726929,,,-363.0,3430.0,-100.0,-8.0,21.0,27.0
6.004649639129639,,,-571.0,3329.0,-323.0,-8.0,22.0,24.0
6.025018692016602,,,-818.0,3159.0,-277.0,-6.0,20.0,12.0
6.045608282089233,,,-845.0,3097.0,-55.0,-5.0,17.0,4.0
6.0659871101379395,,,-862.0,3093.0,616.0,-5.0,12.0,-10.0
6.086386442184448,,,-926.0,3049.0,913.0,-3.0,10.0,-14.0
6.10689377784729,,,-1014.0,2903.0,1117.0,-2.0,9.0,-16.0
6.12751841545105,,,-1125.0,2396.0,1115.0,3.0,11.0,-14.0
6.148094654083252,,,-1134.0,2106.0,748.0,4.0,17.0,-13.0
6.168402910232544,,,-1122.0,1963.0,322.0,5.0,26.0,-16.0
6.188985586166382,,,-627.0,2526.0,1089.0,14.0,40.0,-41.0
6.209436655044556,,,-345.0,3105.0,2676.0,21.0,34.0,-57.0
6.229852914810181,,,-452.0,3270.0,4052.0,17.0,21.0,-70.0
6.2504589557647705,,,-1760.0,1488.0,4823.0,-7.0,15.0,-108.0
6.270824432373047,,,-2406.0,337.0,4938.0,-14.0,17.0,-115.0
6.29137921333313,,,-3217.0,-2199.0,5531.0,-9.0,11.0,-57.0
6.311795711517334,,,-3392.0,-3202.0,5655.0,2.0,4.0,-17.0
6.332377672195435,,,-3372.0,-3540.0,5464.0,15.0,-3.0,13.0
6.352700233459473,,,-2913.0,-2209.0,4304.0,26.0,-6.0,46.0
6.373239278793335,,,-2716.0,-1231.0,3424.0,25.0,-6.0,55.0
6.393653631210327,,,-2603.0,-471.0,2543.0,20.0,-5.0,62.0
6.414159536361694,,,-2434.0,47.0,1225.0,14.0,-6.0,65.0
6.434704303741455,,,-2288.0,77.0,740.0,15.0,-7.0,58.0
6.455223321914673,,,-2183.0,166.0,301.0,17.0,-8.0,46.0
6.475525617599487,,,-2256.0,435.0,-521.0,20.0,-10.0,15.0
6.496039152145386,,,-2291.0,483.0,-916.0,20.0,-10.0,-3.0
6.51655125617981,,,-2185.0,504.0,-1092.0,16.0,-11.0,-20.0
6.537126541137695,,,-1522.0,734.0,-50.0,9.0,-10.0,-52.0
6.55746865272522,,,-1288.0,1004.0,685.0,12.0,-9.0,-65.0
6.577951908111572,,,-1347.0,1159.0,1668.0,5.0,-9.0,-81.0
6.5985846519470215,,,-1422.0,730.0,2297.0,-2.0,-7.0,-80.0
6.619000673294067,,,-1524.0,106.0,3057.0,-8.0,-4.0,-74.0
6.639436483383179,,,-1635.0,-1059.0,4540.0,-12.0,-1.0,-43.0
6.659931182861328,,,-1635.0,-1445.0,4946.0,-8.0,-3.0,-17.0
6.680425405502319,,,-1421.0,-1531.0,4870.0,2.0,-9.0,21.0
6.7008233070373535,,,-1239.0,-1372.0,4476.0,4.0,-12.0,28.0
6.72136926651001,,,-1064.0,-1189.0,3964.0,5.0,-14.0,27.0
6.74181342124939,,,-115.0,-488.0,3622.0,7.0,-11.0,12.0
6.762250900268555,,,866.0,769.0,4685.0,14.0,-4.0,7.0
6.783039093017578,,,1108.0,2312.0,5129.0,16.0,-14.0,12.0
6.803261995315552,,,394.0,2263.0,3421.0,-7.0,-22.0,14.0
6.823726177215576,,,360.0,1785.0,2929.0,-3.0,-16.0,10.0
6.844121694564819,,,432.0,1648.0,2530.0,3.0,-13.0,16.0
6.864650249481201,,,534.0,1846.0,1455.0,4.0,-13.0,32.0
6.885080814361572,,,626.0,2009.0,962.0,1.0,-13.0,39.0
6.905612945556641,,,751.0,2179.0,511.0,-2.0,-13.0,42.0
6.926084280014038,,,884.0,2600.0,-339.0,-7.0,-11.0,35.0
6.9466331005096436,,,810.0,2789.0,-747.0,-9.0,-10.0,24.0
6.967028856277466,,,591.0,3016.0,-1310.0,-9.0,-9.0,-9.0
6.98758602142334,,,596.0,3085.0,-1332.0,-7.0,-10.0,-26.0
7.008070468902588,,,686.0,3130.0,-1179.0,-6.0,-10.0,-38.0
7.028719425201416,,,805.0,2961.0,-565.0,-6.0,-8.0,-44.0
7.0492048263549805,,,749.0,2735.0,-257.0,-8.0,-4.0,-41.0
7.069558620452881,,,621.0,2470.0,-14.0,-11.0,2.0,-37.0
7.089972496032715,,,400.0,2028.0,442.0,-14.0,15.0,-23.0
7.1145758628845215,,,411.0,1877.0,846.0,-16.0,18.0,-14.0
7.135082006454468,,,510.0,1770.0,1374.0,-18.0,19.0,-5.0
7.155639886856079,,,608.0,1692.0,1857.0,-19.0,16.0,3.0
7.1759865283966064,,,654.0,1579.0,2137.0,-20.0,13.0,8.0
7.196632623672485,,,646.0,1334.0,2182.0,-17.0,8.0,12.0
7.216970682144165,,,698.0,1406.0,2183.0,-14.0,6.0,12.0
7.237461090087891,,,716.0,1838.0,2140.0,-10.0,1.0,11.0
7.2578651905059814,,,640.0,2016.0,2000.0,-8.0,-1.0,9.0
7.278563499450684,,,538.0,2176.0,1856.0,-7.0,-2.0,4.0
7.2989373207092285,,,231.0,2342.0,1970.0,-4.0,-8.0,-9.0
7.319310903549194,,,39.0,2250.0,2294.0,2.0,-14.0,-21.0
7.339853048324585,,,-83.0,1985.0,2680.0,7.0,-20.0,-33.0
7.360313892364502,,,-415.0,996.0,3203.0,3.0,-22.0,-50.0
7.376608610153198,,,-666.0,122.0,3277.0,-2.0,-15.0,-53.0
7.397151470184326,,,-826.0,-896.0,3477.0,-3.0,-8.0,-51.0
7.417625665664673,,,-765.0,-2539.0,4572.0,13.0,-3.0,-27.0
7.4382102489471436,,,-647.0,-2814.0,5027.0,22.0,-2.0,-8.0
7.458558797836304,,,-591.0,-2642.0,5123.0,27.0,-2.0,11.0
7.479132175445557,,,-874.0,-1744.0,4084.0,26.0,-2.0,31.0
7.4996018409729,,,-1115.0,-1507.0,3166.0,24.0,-1.0,31.0
7.520095348358154,,,-1290.0,-1291.0,1536.0,26.0,1.0,33.0
7.540436744689941,,,-1159.0,-1150.0,960.0,27.0,1.0,38.0
7.560985565185547,,,-933.0,-941.0,461.0,26.0,1.0,45.0
7.581538200378418,,,-384.0,-384.0,-453.0,19.0,0.0,54.0
7.601951360702515,,,-58.0,50.0,-816.0,15.0,1.0,52.0
7.622411251068115,,,360.0,830.0,-939.0,13.0,6.0,47.0
7.6428258419036865,,,731.0,3089.0,-600.0,10.0,3.0,31.0
7.6634156703948975,,,382.0,3593.0,-813.0,2.0,-2.0,25.0
7.68377423286438,,,8.0,3714.0,-1023.0,-3.0,-3.0,17.0
7.704310655593872,,,-483.0,4221.0,-1154.0,-9.0,6.0,-20.0
7.724807024002075,,,-834.0,4516.0,-1285.0,-16.0,11.0,-42.0
7.745251178741455,,,-1739.0,3452.0,-1755.0,-37.0,41.0,-41.0
7.765760660171509,,,-2162.0,2284.0,-1694.0,-44.0,45.0,-35.0
7.786315679550171,,,-2304.0,1275.0,-1379.0,-49.0,26.0,-42.0
7.806816816329956,,,-2312.0,554.0,1882.0,-63.0,-23.0,-59.0
7.827417850494385,,,-2001.0,387.0,4632.0,-57.0,-28.0,-71.0
7.847693204879761,,,-2303.0,479.0,6482.0,-53.0,-19.0,-74.0
7.868249893188477,,,-3121.0,172.0,9117.0,-64.0,-25.0,-31.0
7.8887104988098145,,,-3319.0,-460.0,9817.0,-55.0,-42.0,-11.0
7.9092254638671875,,,-3504.0,-975.0,9317.0,-45.0,-56.0,-4.0
7.929671049118042,,,-3394.0,-665.0,6680.0,-42.0,-66.0,-3.0
7.950230360031128,,,-2834.0,-254.0,5731.0,-43.0,-67.0,-18.0
7.970561504364014,,,-2017.0,-109.0,5198.0,-39.0,-69.0,-41.0
7.991144895553589,,,-573.0,-791.0,4301.0,-28.0,-69.0,-86.0
8.01149296760559,,,-70.0,-1420.0,3943.0,-23.0,-67.0,-102.0
8.032076835632324,,,258.0,-2242.0,3648.0,-11.0,-63.0,-125.0
8.05259895324707,,,-6.0,-2319.0,3747.0,-5.0,-61.0,-129.0
8.0730140209198,,,-560.0,-2278.0,3889.0,2.0,-58.0,-129.0
8.093366146087646,,,-2109.0,-2012.0,4379.0,19.0,-42.0,-116.0
8.114073276519775,,,-2701.0,-1690.0,4678.0,27.0,-31.0,-99.0
8.13448452949524,,,-2826.0,-1085.0,4905.0,33.0,-22.0,-79.0
8.154861450195312,,,-1853.0,294.0,4538.0,29.0,-5.0,-38.0
8.17535400390625,,,-1329.0,810.0,3784.0,25.0,5.0,-23.0
8.195922613143921,,,-801.0,1276.0,2979.0,24.0,13.0,-21.0
8.216506242752075,,,160.0,2372.0,1984.0,29.0,1.0,-28.0
8.236969947814941,,,331.0,2408.0,1710.0,25.0,-10.0,-13.0
8.257295370101929,,,723.0,1666.0,1369.0,12.0,-21.0,27.0
8.277767896652222,,,1395.0,1382.0,1413.0,7.0,-22.0,45.0
8.298354625701904,,,2286.0,1317.0,1602.0,7.0,-22.0,55.0
8.318670272827148,,,4071.0,2072.0,1429.0,16.0,-21.0,49.0
8.33925485610962,,,4860.0,2799.0,928.0,10.0,-20.0,40.0
8.35974645614624,,,5503.0,3329.0,590.0,-9.0,-15.0,35.0
8.38019347190857,,,5704.0,3275.0,1409.0,-51.0,4.0,35.0
8.400614261627197,,,5331.0,2865.0,2204.0,-62.0,-2.0,20.0
8.421175956726074,,,4700.0,2387.0,2779.0,-60.0,-9.0,11.0
8.441579103469849,,,2851.0,1654.0,2631.0,-48.0,-10.0,1.0
8.45817756652832,,,1907.0,1358.0,2019.0,-47.0,-5.0,-1.0
8.478466749191284,,,1097.0,1129.0,1243.0,-49.0,3.0,5.0
8.498993396759033,,,126.0,1017.0,69.0,-50.0,15.0,30.0
8.519486665725708,,,-178.0,1030.0,-212.0,-45.0,13.0,43.0
8.539875030517578,,,-496.0,966.0,-605.0,-38.0,8.0,51.0
8.56029200553894,,,-856.0,935.0,-1222.0,-32.0,4.0,52.0
8.580856561660767,,,-1249.0,1024.0,-1991.0,-27.0,2.0,48.0
8.60136866569519,,,-2033.0,1561.0,-3554.0,-18.0,0.0,29.0
8.62187385559082,,,-2407.0,1852.0,-4146.0,-13.0,-3.0,14.0
8.64231252670288,,,-2703.0,2087.0,-4346.0,-7.0,-11.0,-6.0
8.66288423538208,,,-2628.0,2188.0,-2681.0,4.0,-46.0,-71.0
8.683343172073364,,,-1852.0,1568.0,-1461.0,9.0,-56.0,-118.0
8.703766107559204,,,-447.0,489.0,-264.0,17.0,-43.0,-148.0
8.72417950630188,,,1708.0,-308.0,1141.0,10.0,-10.0,-120.0
8.744624853134155,,,1371.0,-736.0,779.0,-5.0,5.0,-84.0
8.765141010284424,,,-637.0,-2519.0,814.0,-1.0,17.0,4.0
8.785667896270752,,,-1024.0,-3253.0,915.0,15.0,24.0,60.0
8.806205749511719,,,247.0,-3467.0,1071.0,28.0,37.0,107.0
8.826579093933105,,,6371.0,-1053.0,3010.0,39.0,40.0,134.0
8.847180604934692,,,7781.0,1754.0,2418.0,5.0,34.0,89.0
8.867673635482788,,,6663.0,3158.0,1307.0,-33.0,32.0,33.0
8.888090133666992,,,3881.0,1357.0,1821.0,-28.0,39.0,-16.0
8.908493041992188,,,3536.0,-156.0,3542.0,1.0,41.0,-17.0
8.92913293838501,,,3745.0,-802.0,5268.0,19.0,35.0,2.0
8.94960618019104,,,4087.0,-480.0,6339.0,4.0,23.0,57.0
8.969971179962158,,,3968.0,-271.0,5936.0,-6.0,27.0,74.0
8.990492105484009,,,3844.0,-42.0,5366.0,-11.0,30.0,80.0
9.01101565361023,,,3829.0,717.0,4358.0,-12.0,24.0,65.0
9.031469106674194,,,3791.0,1179.0,4095.0,-12.0,16.0,52.0
9.051968574523926,,,3526.0,1714.0,3844.0,-9.0,4.0,25.0
9.072307109832764,,,3389.0,1906.0,3738.0,-7.0,3.0,8.0
9.09285044670105,,,3226.0,2090.0,3621.0,-9.0,2.0,-6.0
9.117411375045776,,,2557.0,2083.0,2973.0,-21.0,-2.0,-18.0
9.137861490249634,,,2084.0,1895.0,2438.0,-27.0,-5.0,-21.0
9.158411026000977,,,1321.0,1481.0,1467.0,-33.0,-12.0,-25.0
9.174803495407104,,,1167.0,1367.0,1237.0,-31.0,-15.0,-25.0
9.195239305496216,,,1064.0,1354.0,1214.0,-30.0,-20.0,-25.0
9.215723991394043,,,471.0,1410.0,961.0,-31.0,-28.0,-32.0
9.236217737197876,,,-48.0,1467.0,769.0,-30.0,-31.0,-41.0
9.256643772125244,,,-613.0,1513.0,643.0,-29.0,-33.0,-54.0
9.277113437652588,,,-1632.0,1424.0,1165.0,-30.0,-32.0,-83.0
9.297804832458496,,,-1969.0,1074.0,2031.0,-27.0,-30.0,-89.0
9.31804871559143,,,-2166.0,569.0,3422.0,-19.0,-27.0,-82.0
9.338613510131836,,,-2836.0,-177.0,5497.0,-4.0,-25.0,-27.0
9.359017133712769,,,-3419.0,-115.0,5253.0,2.0,-23.0,0.0
9.379541158676147,,,-3634.0,176.0,4888.0,8.0,-21.0,16.0
9.400200843811035,,,-2223.0,811.0,4950.0,16.0,-19.0,25.0
9.420509815216064,,,-986.0,908.0,4959.0,15.0,-15.0,19.0
9.440932035446167,,,949.0,744.0,3867.0,-2.0,1.0,-3.0
9.461464881896973,,,1292.0,514.0,2848.0,-11.0,7.0,-16.0
9.481850862503052,,,1144.0,84.0,1629.0,-15.0,12.0,-18.0
9.502378225326538,,,441.0,-1123.0,-712.0,-14.0,24.0,9.0
9.522850513458252,,,456.0,-1614.0,-1682.0,-15.0,33.0,29.0
9.543362379074097,,,517.0,-1939.0,-2430.0,-18.0,39.0,44.0
9.563936948776245,,,-405.0,-2526.0,-3724.0,-14.0,41.0,62.0
9.584333419799805,,,-1115.0,-2761.0,-4348.0,-5.0,41.0,73.0
9.604803562164307,,,-1616.0,-2785.0,-4893.0,6.0,43.0,84.0
9.625285863876343,,,-1288.0,-1554.0,-4704.0,16.0,49.0,87.0
9.645820617675781,,,-836.0,-529.0,-3217.0,14.0,40.0,78.0
9.666356325149536,,,1429.0,1557.0,2560.0,41.0,23.0,52.0
9.686727046966553,,,2095.0,4014.0,4066.0,35.0,12.0,17.0
9.707481622695923,,,1698.0,5432.0,4414.0,11.0,10.0,-18.0
9.727807521820068,,,-45.0,4347.0,5479.0,-3.0,26.0,-4.0
9.748274564743042,,,-773.0,3494.0,5706.0,-8.0,27.0,17.0
9.768678188323975,,,-1189.0,3121.0,5467.0,-17.0,24.0,34.0
9.789161920547485,,,-1264.0,3313.0,3820.0,-41.0,17.0,45.0
9.809772491455078,,,-1155.0,3460.0,2779.0,-52.0,13.0,34.0
9.83034896850586,,,-1022.0,3444.0,1803.0,-59.0,4.0,13.0
9.850632429122925,,,-817.0,2769.0,135.0,-54.0,-29.0,-24.0
9.871123552322388,,,-809.0,2292.0,-300.0,-42.0,-47.0,-35.0
9.891529321670532,,,-611.0,2018.0,663.0,-13.0,-79.0,-73.0
9.912128448486328,,,-326.0,2425.0,1619.0,-6.0,-86.0,-105.0
9.932604551315308,,,-138.0,2950.0,2359.0,-12.0,-82.0,-143.0
9.952986001968384,,,-62.0,2159.0,3815.0,-49.0,-56.0,-176.0
9.973573923110962,,,-729.0,495.0,5103.0,-63.0,-44.0,-143.0
9.993988752365112,,,-2277.0,-1291.0,6603.0,-69.0,-20.0,-70.0
10.014384269714355,,,-4128.0,-2759.0,8634.0,-46.0,-6.0,36.0
10.03507113456726,,,-3693.0,-1741.0,8282.0,-38.0,-2.0,52.0
10.055443048477173,,,-2946.0,-158.0,7511.0,-40.0,0.0,36.0
10.075787782669067,,,-1943.0,2134.0,6899.0,-53.0,-22.0,-39.0
10.096376657485962,,,-2017.0,1938.0,6877.0,-46.0,-40.0,-79.0
10.11672306060791,,,-2463.0,1147.0,6473.0,-30.0,-54.0,-105.0
10.137281656265259,,,-3467.0,-62.0,4769.0,4.0,-58.0,-95.0
10.157747268676758,,,-3333.0,-79.0,3930.0,12.0,-53.0,-70.0
10.17826247215271,,,-2405.0,424.0,2718.0,12.0,-40.0,-7.0
10.198714017868042,,,-2126.0,706.0,2180.0,11.0,-33.0,11.0
10.219393491744995,,,-1967.0,921.0,1595.0,10.0,-28.0,18.0
10.239651441574097,,,-1551.0,1354.0,210.0,12.0,-18.0,18.0
10.256121158599854,,,-1147.0,1640.0,-361.0,13.0,-14.0,13.0
10.276625156402588,,,-637.0,1928.0,-651.0,15.0,-13.0,0.0
10.297128200531006,,,262.0,2208.0,-591.0,24.0,-15.0,-40.0
10.317573070526123,,,375.0,2166.0,-652.0,27.0,-8.0,-59.0
10.338009119033813,,,371.0,1867.0,-638.0,28.0,6.0,-72.0
10.35852861404419,,,612.0,1144.0,427.0,24.0,12.0,-91.0
10.379030704498291,,,600.0,1113.0,1174.0,20.0,8.0,-86.0
10.399539709091187,,,22.0,1518.0,2227.0,18.0,4.0,-82.0
10.419903039932251,,,136.0,1928.0,2755.0,19.0,-1.0,-95.0
10.440347671508789,,,801.0,2008.0,3717.0,15.0,-7.0,-96.0
10.460929155349731,,,1744.0,1519.0,5159.0,13.0,-9.0,-75.0
10.481283903121948,,,2337.0,1290.0,6115.0,1.0,-9.0,11.0
10.501797437667847,,,1832.0,1397.0,5638.0,-1.0,-7.0,38.0
10.522324323654175,,,1456.0,1125.0,4543.0,6.0,-9.0,46.0
10.542763233184814,,,1895.0,920.0,3993.0,9.0,-12.0,37.0
10.563263893127441,,,2456.0,754.0,3419.0,10.0,-16.0,25.0
10.583805561065674,,,2758.0,420.0,2116.0,9.0,-16.0,11.0
10.6042959690094,,,2516.0,293.0,1557.0,8.0,-15.0,5.0
10.624673843383789,,,2280.0,179.0,1223.0,8.0,-13.0,-5.0
10.645143985748291,,,1971.0,-183.0,946.0,16.0,-7.0,-23.0
10.665685892105103,,,1756.0,-414.0,751.0,19.0,-2.0,-24.0
10.686195850372314,,,1066.0,-822.0,610.0,17.0,6.0,-10.0
10.706551790237427,,,729.0,-1116.0,889.0,17.0,11.0,-6.0
10.727110624313354,,,605.0,-1465.0,1400.0,23.0,17.0,-7.0
10.747662782669067,,,734.0,-1563.0,2214.0,38.0,27.0,-2.0
10.768099546432495,,,672.0,-1271.0,2256.0,43.0,32.0,11.0
10.788670539855957,,,563.0,-1013.0,2252.0,46.0,36.0,27.0
10.80900764465332,,,401.0,-891.0,2302.0,55.0,40.0,39.0
10.829567432403564,,,308.0,-855.0,2313.0,58.0,41.0,38.0
10.84996771812439,,,214.0,-795.0,2211.0,60.0,41.0,35.0
10.870482444763184,,,100.0,-638.0,1777.0,58.0,41.0,24.0
10.89090347290039,,,258.0,-701.0,1883.0,56.0,41.0,20.0
10.911579847335815,,,371.0,-1089.0,2769.0,49.0,33.0,27.0
10.931949377059937,,,70.0,-1440.0,3015.0,46.0,33.0,34.0
10.952383995056152,,,-90.0,-1795.0,3262.0,49.0,36.0,45.0
10.972983837127686,,,486.0,-1453.0,3481.0,61.0,37.0,69.0
10.993378400802612,,,911.0,-807.0,3445.0,63.0,36.0,79.0
11.013920783996582,,,1345.0,19.0,3720.0,63.0,32.0,89.0
11.034273386001587,,,1602.0,1229.0,4702.0,63.0,12.0,106.0
11.054888248443604,,,1561.0,1459.0,4916.0,62.0,2.0,109.0
11.075307846069336,,,1509.0,1411.0,4608.0,60.0,-8.0,100.0
11.095870971679688,,,1296.0,799.0,2996.0,52.0,-1.0,70.0
11.116286754608154,,,1322.0,752.0,2751.0,47.0,-2.0,55.0
11.136704444885254,,,1478.0,1037.0,2885.0,47.0,-9.0,33.0
11.157164096832275,,,880.0,2672.0,2114.0,42.0,-13.0,-4.0
11.177750587463379,,,264.0,3211.0,1599.0,26.0,-13.0,-13.0
11.198132038116455,,,-90.0,3059.0,1439.0,11.0,-6.0,-18.0
11.218665599822998,,,-90.0,1887.0,2074.0,4.0,-1.0,-31.0
11.239146947860718,,,-65.0,1415.0,2400.0,6.0,-4.0,-34.0
11.259724855422974,,,-219.0,991.0,2714.0,5.0,-7.0,-25.0
11.28010892868042,,,-261.0,989.0,2877.0,0.0,-11.0,-19.0
11.300570964813232,,,-152.0,909.0,3107.0,-3.0,-14.0,-16.0
11.316963911056519,,,-168.0,349.0,2778.0,0.0,-11.0,-14.0
11.337675094604492,,,-291.0,74.0,2352.0,-2.0,-4.0,-9.0
11.357957363128662,,,-475.0,-56.0,1902.0,-4.0,3.0,-12.0
11.378360271453857,,,-512.0,-61.0,2017.0,-2.0,3.0,-43.0
11.398832321166992,,,-391.0,-67.0,2293.0,2.0,2.0,-55.0
11.419391393661499,,,17.0,229.0,2993.0,0.0,4.0,-55.0
11.439759254455566,,,458.0,290.0,3596.0,0.0,4.0,-47.0
11.460293769836426,,,901.0,228.0,4140.0,0.0,1.0,-34.0
11.480721712112427,,,1081.0,-519.0,4183.0,-4.0,-9.0,4.0
11.501315355300903,,,1045.0,-1033.0,3856.0,-7.0,-12.0,19.0
11.521647691726685,,,1137.0,-1230.0,3603.0,-8.0,-14.0,24.0
11.54228949546814,,,1499.0,-860.0,3314.0,-9.0,-26.0,9.0
11.562721490859985,,,1639.0,-886.0,3163.0,-8.0,-33.0,5.0
11.583109140396118,,,1804.0,-1144.0,2914.0,-6.0,-35.0,8.0
11.603670597076416,,,1920.0,-1577.0,2152.0,-8.0,-33.0,22.0
11.628283977508545,,,2050.0,-1560.0,1802.0,-11.0,-30.0,21.0
11.648593425750732,,,2539.0,-531.0,1501.0,-8.0,-26.0,-9.0
11.669207334518433,,,2784.0,313.0,1280.0,-4.0,-26.0,-30.0
11.689616680145264,,,2734.0,1119.0,1081.0,-5.0,-25.0,-45.0
11.710133075714111,,,1851.0,937.0,1128.0,-17.0,-23.0,-41.0
11.730626821517944,,,1222.0,390.0,1449.0,-19.0,-15.0,-37.0
11.751105070114136,,,553.0,228.0,1900.0,-19.0,-12.0,-41.0
11.771552085876465,,,-764.0,280.0,2731.0,-17.0,-7.0,-51.0
11.79214358329773,,,-1265.0,74.0,3190.0,-12.0,-1.0,-38.0
11.81267237663269,,,-1539.0,-92.0,3847.0,-3.0,6.0,-4.0
11.833102464675903,,,-1207.0,156.0,3964.0,0.0,3.0,6.0
11.85356616973877,,,-832.0,422.0,3823.0,1.0,1.0,13.0
11.873981952667236,,,-629.0,406.0,3418.0,1.0,6.0,22.0
11.894410848617554,,,-363.0,392.0,2796.0,5.0,15.0,30.0
11.91495680809021,,,-352.0,768.0,2590.0,8.0,14.0,22.0
11.93555998802185,,,-370.0,1835.0,2067.0,5.0,8.0,-5.0
11.955952882766724,,,-113.0,1975.0,2082.0,1.0,6.0,-12.0
11.97633171081543,,,131.0,1825.0,2399.0,-2.0,4.0,-13.0
11.996801614761353,,,599.0,1027.0,3221.0,0.0,1.0,-1.0
12.017454624176025,,,710.0,741.0,3319.0,-1.0,1.0,10.0
12.033713340759277,,,709.0,535.0,3137.0,-3.0,3.0,18.0
12.05422568321228,,,563.0,840.0,2587.0,-2.0,0.0,11.0
12.074658393859863,,,334.0,1164.0,2175.0,-3.0,-3.0,-1.0
12.095130681991577,,,-396.0,904.0,2259.0,-10.0,-11.0,-24.0
12.115606784820557,,,-514.0,183.0,2915.0,1.0,-14.0,-29.0
12.136050939559937,,,-441.0,-40.0,3372.0,16.0,-12.0,-25.0
12.156593561172485,,,67.0,858.0,3107.0,8.0,-11.0,10.0
12.17710018157959,,,138.0,-60.0,2334.0,2.0,-3.0,30.0
12.197551727294922,,,181.0,-1046.0,1826.0,1.0,8.0,39.0
12.218038558959961,,,376.0,-691.0,2020.0,3.0,5.0,27.0
12.238425016403198,,,741.0,620.0,2152.0,5.0,-12.0,-4.0
12.259011030197144,,,830.0,1736.0,1751.0,6.0,-17.0,-33.0
12.279581785202026,,,68.0,2055.0,1487.0,-8.0,-3.0,-67.0
12.299933433532715,,,-42.0,2540.0,2456.0,-13.0,-15.0,-49.0
12.32041597366333,,,736.0,2494.0,3274.0,-14.0,-29.0,-19.0
12.340970754623413,,,960.0,1644.0,3200.0,-18.0,-25.0,-15.0
12.361322164535522,,,956.0,618.0,3009.0,-21.0,-21.0,-10.0
12.381869554519653,,,819.0,-639.0,2376.0,-22.0,-16.0,8.0
12.402240991592407,,,823.0,-699.0,2499.0,-20.0,-17.0,10.0
12.422825574874878,,,779.0,-443.0,2695.0,-17.0,-19.0,4.0
12.443338871002197,,,663.0,-125.0,2619.0,-15.0,-19.0,-4.0
12.463762760162354,,,534.0,126.0,2392.0,-14.0,-18.0,-9.0
12.484215497970581,,,510.0,276.0,2285.0,-14.0,-18.0,-9.0
12.504729270935059,,,720.0,165.0,2414.0,-11.0,-19.0,-7.0
12.525230169296265,,,811.0,-64.0,2492.0,-10.0,-21.0,-8.0
12.545724153518677,,,739.0,-426.0,2482.0,-9.0,-20.0,-7.0
12.56615662574768,,,632.0,-610.0,2396.0,-8.0,-15.0,-2.0
12.586617946624756,,,749.0,-355.0,2454.0,-8.0,-15.0,-4.0
12.607110023498535,,,590.0,-150.0,2372.0,-8.0,-16.0,-6.0
12.627513647079468,,,480.0,-185.0,2395.0,-7.0,-13.0,-7.0
12.64803695678711,,,493.0,-233.0,2524.0,-6.0,-11.0,-8.0
12.668723821640015,,,565.0,-201.0,2728.0,-6.0,-10.0,-2.0
12.689014911651611,,,448.0,-143.0,2647.0,-7.0,-10.0,3.0
12.709571361541748,,,327.0,-169.0,2469.0,-7.0,-8.0,5.0
12.729948043823242,,,355.0,-241.0,2230.0,-5.0,-4.0,-1.0
12.750530004501343,,,434.0,-120.0,2193.0,-5.0,-4.0,-8.0
12.770938873291016,,,495.0,69.0,2183.0,-7.0,-4.0,-13.0
12.791439056396484,,,617.0,119.0,2607.0,-9.0,-6.0,-14.0
12.812008619308472,,,620.0,-96.0,2902.0,-7.0,-7.0,-9.0
12.83246660232544,,,577.0,-428.0,3203.0,-5.0,-4.0,3.0
12.852975130081177,,,592.0,-382.0,3112.0,-5.0,-2.0,10.0
12.873546361923218,,,647.0,-243.0,2899.0,-4.0,-1.0,14.0
12.893803596496582,,,789.0,-40.0,2524.0,-4.0,0.0,13.0
12.914250373840332,,,792.0,-8.0,2484.0,-4.0,-1.0,8.0
12.934766054153442,,,776.0,53.0,2483.0,-3.0,-1.0,2.0
12.955247402191162,,,687.0,129.0,2516.0,-2.0,-2.0,-2.0
12.975730657577515,,,574.0,51.0,2541.0,-2.0,-1.0,-1.0
12.996217489242554,,,524.0,32.0,2619.0,0.0,0.0,0.0
13.016695976257324,,,487.0,232.0,2611.0,1.0,0.0,3.0
13.037245750427246,,,522.0,298.0,2601.0,1.0,0.0,5.0
13.057664394378662,,,530.0,306.0,2575.0,0.0,-1.0,5.0
13.078178405761719,,,531.0,241.0,2514.0,-1.0,-1.0,3.0
13.098595380783081,,,526.0,236.0,2455.0,-1.0,-1.0,2.0
13.115037202835083,,,448.0,254.0,2173.0,-2.0,1.0,-1.0
13.13544487953186,,,504.0,197.0,2191.0,-4.0,1.0,-4.0
13.156032085418701,,,532.0,114.0,2319.0,-5.0,0.0,-5.0
13.176503419876099,,,184.0,183.0,2395.0,-3.0,-1.0,-6.0
13.197030782699585,,,-27.0,246.0,2316.0,-2.0,0.0,-4.0
13.217408657073975,,,-98.0,219.0,2291.0,-2.0,1.0,-2.0
13.237939596176147,,,71.0,214.0,2504.0,-4.0,-1.0,-5.0
13.25839900970459,,,62.0,298.0,2619.0,-5.0,-3.0,-8.0
13.278792142868042,,,-74.0,317.0,2724.0,-6.0,-4.0,-7.0
13.299457788467407,,,-131.0,92.0,3043.0,-6.0,-2.0,7.0
13.319828748703003,,,-19.0,66.0,3295.0,-9.0,-3.0,11.0
13.340296268463135,,,-29.0,507.0,3561.0,-15.0,-16.0,15.0
13.360723495483398,,,-218.0,864.0,3261.0,-16.0,-24.0,17.0
13.381396532058716,,,-344.0,1140.0,2786.0,-17.0,-29.0,17.0
13.401707410812378,,,41.0,1483.0,2106.0,-23.0,-35.0,-2.0
13.422218561172485,,,119.0,1753.0,1983.0,-30.0,-41.0,-16.0
13.442679166793823,,,70.0,2222.0,2095.0,-36.0,-47.0,-26.0
13.463218212127686,,,-173.0,3082.0,2550.0,-42.0,-55.0,-22.0
13.483592510223389,,,-380.0,3136.0,2780.0,-46.0,-60.0,-11.0
13.50414490699768,,,-939.0,2205.0,2847.0,-49.0,-61.0,-5.0
13.524560689926147,,,-2122.0,216.0,4082.0,-43.0,-48.0,-11.0
13.545109272003174,,,-2179.0,118.0,4914.0,-40.0,-49.0,-16.0
13.565601348876953,,,-1956.0,734.0,5431.0,-42.0,-50.0,-15.0
13.586050510406494,,,-2558.0,1592.0,5321.0,-47.0,-40.0,-33.0
13.606484651565552,,,-3095.0,1761.0,5245.0,-40.0,-26.0,-58.0
13.627055883407593,,,-2347.0,1581.0,6248.0,-32.0,-19.0,-105.0
13.64747929573059,,,-1963.0,1555.0,6576.0,-31.0,-21.0,-115.0
13.668018579483032,,,-2278.0,1368.0,6778.0,-30.0,-19.0,-112.0
13.688411474227905,,,-3789.0,-35.0,6197.0,11.0,10.0,-66.0
13.708858013153076,,,-4002.0,-1019.0,4260.0,34.0,38.0,-31.0
13.729403734207153,,,-3486.0,-2099.0,1290.0,47.0,71.0,2.0
13.749873161315918,,,-149.0,-1555.0,-3640.0,3.0,74.0,66.0
13.770292282104492,,,2188.0,-25.0,-4035.0,-38.0,35.0,94.0
13.790847301483154,,,3938.0,741.0,-2851.0,-61.0,-17.0,87.0
13.811317205429077,,,4351.0,-694.0,-90.0,-8.0,-62.0,-60.0
13.83190655708313,,,4349.0,-1017.0,431.0,9.0,-60.0,-123.0
13.852299690246582,,,4105.0,-2023.0,1928.0,-1.0,-58.0,-130.0
13.872732639312744,,,3988.0,-3001.0,4079.0,1.0,-59.0,-97.0
13.89326524734497,,,3957.0,-3788.0,6371.0,-1.0,-66.0,-54.0
13.913744688034058,,,2599.0,-4482.0,8135.0,-8.0,-68.0,11.0
13.93417763710022,,,2072.0,-4302.0,7466.0,-6.0,-55.0,24.0
13.95464301109314,,,2012.0,-3944.0,6690.0,-8.0,-44.0,28.0
13.975132703781128,,,1954.0,-3381.0,5491.0,-13.0,-19.0,50.0
13.995655536651611,,,1869.0,-2988.0,4433.0,-23.0,-16.0,73.0
14.016178369522095,,,1973.0,-2195.0,3034.0,-38.0,-20.0,108.0
14.036648988723755,,,3443.0,1235.0,497.0,-56.0,-32.0,141.0
14.057119607925415,,,4773.0,2958.0,-1236.0,-56.0,-26.0,113.0
14.077553510665894,,,6556.0,4122.0,-2850.0,-61.0,-28.0,58.0
14.09805679321289,,,7939.0,4367.0,-4603.0,-79.0,-51.0,-50.0
14.11854362487793,,,7371.0,3853.0,-5061.0,-74.0,-72.0,-85.0
14.138983011245728,,,6591.0,2780.0,-4698.0,-60.0,-117.0,-165.0
14.159430503845215,,,7141.0,1740.0,-3889.0,-66.0,-129.0,-219.0
14.180046319961548,,,7394.0,-471.0,-2759.0,-74.0,-117.0,-255.0
14.200418472290039,,,5180.0,-4124.0,3040.0,-65.0,-107.0,-220.0
14.220920324325562,,,3268.0,-3087.0,5727.0,-72.0,-117.0,-154.0
14.241358280181885,,,293.0,-383.0,7671.0,-54.0,-98.0,-16.0
14.261878252029419,,,-59.0,-616.0,6309.0,-53.0,-73.0,24.0
14.282430648803711,,,-79.0,-1523.0,4111.0,-62.0,-44.0,37.0
14.302793741226196,,,373.0,-3395.0,844.0,-90.0,-26.0,41.0
14.323309183120728,,,42.0,-3146.0,85.0,-101.0,-39.0,38.0
14.343746423721313,,,-589.0,-2141.0,-546.0,-101.0,-51.0,25.0
14.36427617073059,,,-1611.0,-152.0,-3119.0,-85.0,-50.0,3.0
14.384795188903809,,,-1995.0,471.0,-4780.0,-79.0,-39.0,-4.0
14.405267477035522,,,-2282.0,829.0,-6152.0,-71.0,-25.0,-9.0
14.425698280334473,,,-1424.0,-117.0,-7112.0,-48.0,-15.0,-31.0
14.446085453033447,,,-280.0,-1170.0,-6486.0,-33.0,-28.0,-63.0
14.466658115386963,,,2298.0,-3745.0,-4063.0,-24.0,-37.0,-142.0
14.487058162689209,,,3052.0,-4767.0,-2768.0,-44.0,-32.0,-186.0
14.519845724105835,,,2999.0,-4634.0,-707.0,-73.0,-23.0,-203.0
14.54053544998169,,,2838.0,-3496.0,2595.0,-91.0,-18.0,-172.0
14.56081748008728,,,3089.0,-1810.0,6103.0,-97.0,-17.0,-98.0
14.581292152404785,,,3398.0,-73.0,8257.0,-97.0,-19.0,-12.0
14.601848125457764,,,3648.0,1900.0,8338.0,-89.0,-15.0,86.0
14.626325845718384,,,3831.0,2165.0,7695.0,-78.0,-18.0,81.0
14.64681363105774,,,4042.0,1832.0,7165.0,-69.0,-23.0,57.0
14.667340278625488,,,4158.0,826.0,6768.0,-66.0,-32.0,29.0
14.687772035598755,,,3981.0,-225.0,6356.0,-68.0,-42.0,3.0
14.708261728286743,,,3226.0,-329.0,4975.0,-66.0,-48.0,-26.0
14.728756189346313,,,2884.0,489.0,4300.0,-56.0,-47.0,-27.0
14.749305009841919,,,2567.0,1146.0,3972.0,-37.0,-46.0,-19.0
14.769714832305908,,,1891.0,226.0,3699.0,-12.0,-51.0,7.0
14.79035758972168,,,1646.0,-428.0,3474.0,-14.0,-54.0,9.0
14.810827255249023,,,1599.0,-615.0,3088.0,-21.0,-49.0,0.0
14.831182479858398,,,2108.0,-632.0,2809.0,-24.0,-22.0,-35.0
14.851622819900513,,,2522.0,-436.0,2960.0,-23.0,-9.0,-44.0
14.872111082077026,,,2939.0,-82.0,3638.0,-24.0,0.0,-37.0
14.892768859863281,,,3635.0,501.0,5123.0,-25.0,7.0,-8.0
14.913103818893433,,,4037.0,784.0,5088.0,-25.0,6.0,0.0
14.933555841445923,,,4700.0,1374.0,4360.0,-14.0,6.0,2.0
14.954078197479248,,,4794.0,1394.0,3948.0,-11.0,6.0,8.0
14.974502325057983,,,4721.0,1096.0,3586.0,-11.0,5.0,15.0
14.995044231414795,,,4479.0,218.0,3013.0,-12.0,-1.0,21.0
15.015491485595703,,,4411.0,-130.0,2770.0,-11.0,-6.0,17.0
15.036109447479248,,,4385.0,-323.0,2448.0,-10.0,-11.0,11.0
15.056415557861328,,,4291.0,-566.0,1921.0,-12.0,-16.0,-3.0
15.07291865348816,,,4173.0,-553.0,1723.0,-13.0,-19.0,-4.0
15.093354225158691,,,4015.0,-495.0,1611.0,-13.0,-20.0,-1.0
15.113893985748291,,,3488.0,-901.0,1639.0,-12.0,-21.0,5.0
15.134249448776245,,,3206.0,-1213.0,1683.0,-13.0,-23.0,3.0
15.154767751693726,,,2973.0,-1338.0,1694.0,-14.0,-24.0,-1.0
15.175315856933594,,,2807.0,-1296.0,1641.0,-13.0,-24.0,-5.0
15.19587254524231,,,2640.0,-1282.0,1625.0,-12.0,-24.0,-9.0
15.216286659240723,,,2250.0,-1455.0,1885.0,-13.0,-26.0,-12.0
15.236666202545166,,,2266.0,-1384.0,1858.0,-13.0,-26.0,-14.0
15.257121086120605,,,2439.0,-1223.0,1717.0,-11.0,-25.0,-17.0
15.277602195739746,,,2635.0,-1625.0,1823.0,-5.0,-24.0,-21.0
15.298165082931519,,,2665.0,-2141.0,1926.0,-9.0,-27.0,-23.0
15.318629503250122,,,2758.0,-2496.0,1842.0,-16.0,-29.0,-28.0
15.33902382850647,,,2921.0,-2340.0,1564.0,-22.0,-34.0,-49.0
15.359480142593384,,,2749.0,-2064.0,1543.0,-18.0,-35.0,-59.0
15.379945755004883,,,2373.0,-1868.0,1605.0,-14.0,-36.0,-67.0
15.40052604675293,,,1517.0,-1229.0,1784.0,-12.0,-37.0,-73.0
15.421020984649658,,,1203.0,-645.0,1799.0,-11.0,-34.0,-68.0
15.441501140594482,,,1002.0,691.0,1754.0,-3.0,-23.0,-41.0
15.4619779586792,,,1177.0,975.0,1779.0,6.0,-20.0,-34.0
15.482481241226196,,,1285.0,893.0,1750.0,16.0,-18.0,-38.0
15.502880811691284,,,524.0,-93.0,1839.0,25.0,-4.0,-39.0
15.523379564285278,,,-164.0,-918.0,2196.0,24.0,1.0,-28.0
15.543851375579834,,,-797.0,-1845.0,2734.0,20.0,2.0,-17.0
15.564291715621948,,,-1295.0,-3076.0,3684.0,1.0,2.0,0.0
15.584821701049805,,,-1039.0,-3199.0,3791.0,-8.0,4.0,11.0
15.605258464813232,,,-541.0,-3001.0,3682.0,-13.0,4.0,21.0
15.625866651535034,,,-92.0,-2349.0,3529.0,-4.0,4.0,32.0
15.646298885345459,,,-276.0,-2376.0,3287.0,1.0,5.0,32.0
15.666741609573364,,,-580.0,-2633.0,2593.0,-7.0,6.0,29.0
15.687188148498535,,,-549.0,-2536.0,2309.0,-12.0,5.0,24.0
15.707749366760254,,,-496.0,-2361.0,2131.0,-14.0,3.0,18.0
15.72821593284607,,,-530.0,-2024.0,2012.0,-12.0,-1.0,7.0
15.748687028884888,,,-540.0,-1888.0,1921.0,-10.0,-2.0,3.0
15.769289016723633,,,-513.0,-1754.0,1809.0,-9.0,-3.0,-1.0
15.789632558822632,,,-427.0,-1507.0,1702.0,-6.0,-4.0,-7.0
15.810094356536865,,,-397.0,-1417.0,1759.0,-4.0,-4.0,-9.0
15.830652713775635,,,-360.0,-1400.0,1878.0,-4.0,-4.0,-10.0
15.851052522659302,,,-119.0,-1347.0,1962.0,-3.0,-4.0,-12.0
15.8714919090271,,,-4.0,-1270.0,1980.0,-3.0,-2.0,-10.0
15.892014265060425,,,47.0,-1219.0,2058.0,-2.0,-1.0,-7.0
15.912479877471924,,,5.0,-1330.0,2303.0,-2.0,0.0,-3.0
15.933001518249512,,,-44.0,-1463.0,2415.0,-2.0,-1.0,-4.0
15.953384399414062,,,-7.0,-1594.0,2531.0,-4.0,-4.0,-7.0
15.974005460739136,,,73.0,-1501.0,2529.0,-6.0,-4.0,-6.0
15.994406461715698,,,126.0,-1347.0,2550.0,-8.0,-3.0,-3.0
16.014907360076904,,,195.0,-1087.0,2547.0,-9.0,-3.0,4.0
16.03536105155945,,,256.0,-1016.0,2466.0,-9.0,-4.0,4.0
16.05591368675232,,,306.0,-936.0,2342.0,-9.0,-3.0,3.0
16.076364517211914,,,318.0,-864.0,2259.0,-9.0,-1.0,2.0
16.096816539764404,,,275.0,-791.0,2219.0,-9.0,0.0,2.0
16.117300033569336,,,248.0,-699.0,2198.0,-9.0,1.0,2.0
16.13785743713379,,,313.0,-483.0,2152.0,-7.0,5.0,4.0
16.154109477996826,,,360.0,-364.0,2036.0,-7.0,8.0,4.0
16.174582719802856,,,575.0,-221.0,1708.0,-9.0,11.0,0.0
16.195143461227417,,,835.0,-162.0,1582.0,-7.0,12.0,-5.0
16.21580934524536,,,1225.0,-33.0,1510.0,-4.0,17.0,-8.0
16.236124277114868,,,1884.0,941.0,1665.0,9.0,37.0,-2.0
16.256652355194092,,,1921.0,1384.0,1935.0,17.0,41.0,-1.0
16.276967525482178,,,2022.0,1397.0,2285.0,18.0,33.0,7.0
16.297683477401733,,,2501.0,837.0,3050.0,20.0,13.0,6.0
16.31812047958374,,,2655.0,394.0,3167.0,29.0,8.0,-29.0
16.338451385498047,,,2722.0,-151.0,3052.0,36.0,11.0,-63.0
16.359144926071167,,,2394.0,-1016.0,3184.0,34.0,14.0,-78.0
16.379449367523193,,,1971.0,-1280.0,3776.0,32.0,12.0,-62.0
16.39988660812378,,,1341.0,-1480.0,4642.0,34.0,9.0,-39.0
16.420560359954834,,,695.0,-1927.0,5824.0,24.0,-9.0,9.0
16.440826416015625,,,474.0,-2094.0,5847.0,16.0,-14.0,17.0
16.461251974105835,,,-297.0,-2856.0,5041.0,13.0,-22.0,25.0
16.481849670410156,,,-810.0,-3152.0,4277.0,11.0,-26.0,35.0
16.50228452682495,,,-1291.0,-3307.0,3434.0,6.0,-28.0,44.0
16.522730350494385,,,-1847.0,-3108.0,1918.0,-5.0,-28.0,47.0
16.543251514434814,,,-1930.0,-2901.0,1377.0,-11.0,-30.0,37.0
16.563671350479126,,,-1968.0,-2602.0,979.0,-16.0,-32.0,24.0
16.584214210510254,,,-1923.0,-2002.0,488.0,-23.0,-32.0,0.0
16.604687213897705,,,-1798.0,-1760.0,409.0,-24.0,-28.0,-8.0
16.62512731552124,,,-1636.0,-1480.0,422.0,-22.0,-24.0,-13.0
16.649821996688843,,,-1329.0,-792.0,726.0,-12.0,-17.0,-15.0
16.670228719711304,,,-1245.0,-575.0,986.0,-7.0,-14.0,-16.0
16.690674304962158,,,-1182.0,-810.0,1428.0,-1.0,-13.0,-22.0
16.711167573928833,,,-1145.0,-1105.0,1453.0,1.0,-13.0,-26.0
16.73176598548889,,,-1063.0,-1379.0,1403.0,0.0,-13.0,-28.0
16.752087354660034,,,-591.0,-1625.0,1423.0,-5.0,-12.0,-35.0
16.772682666778564,,,-401.0,-1619.0,1597.0,-8.0,-12.0,-42.0
16.793065071105957,,,-47.0,-1215.0,2029.0,-12.0,-11.0,-52.0
16.81357431411743,,,104.0,-866.0,2265.0,-13.0,-10.0,-49.0
16.834174633026123,,,197.0,-517.0,2539.0,-13.0,-8.0,-41.0
16.854589462280273,,,254.0,4.0,2985.0,-11.0,-8.0,-22.0
16.870928287506104,,,276.0,153.0,3058.0,-9.0,-8.0,-15.0
16.89143991470337,,,290.0,254.0,3009.0,-7.0,-8.0,-9.0
16.911876916885376,,,171.0,343.0,2704.0,-3.0,-5.0,-2.0
16.93251872062683,,,34.0,325.0,2528.0,-2.0,-4.0,0.0
16.952856063842773,,,-112.0,244.0,2348.0,-2.0,-3.0,1.0
16.973342418670654,,,-211.0,11.0,1982.0,-4.0,0.0,0.0
16.99373698234558,,,-199.0,-129.0,1889.0,-4.0,1.0,-2.0
17.014265298843384,,,-163.0,-268.0,1858.0,-3.0,2.0,-5.0
17.034827709197998,,,-89.0,-620.0,1974.0,-1.0,5.0,-7.0
17.055307865142822,,,-42.0,-806.0,2074.0,-1.0,6.0,-5.0
17.07576847076416,,,74.0,-1058.0,2339.0,-3.0,8.0,1.0
17.096221446990967,,,159.0,-1141.0,2449.0,-2.0,8.0,3.0
17.11668634414673,,,262.0,-1237.0,2506.0,-1.0,8.0,3.0
17.1371853351593,,,318.0,-1451.0,2534.0,2.0,6.0,-1.0
17.157665491104126,,,292.0,-1560.0,2552.0,1.0,6.0,-1.0
17.178069353103638,,,276.0,-1604.0,2531.0,-1.0,6.0,1.0
17.198546171188354,,,284.0,-1517.0,2527.0,-1.0,2.0,-1.0
17.219075679779053,,,238.0,-1391.0,2556.0,1.0,-1.0,-5.0
17.239616632461548,,,121.0,-1271.0,2572.0,3.0,-2.0,-9.0
17.260115385055542,,,-82.0,-1224.0,2440.0,3.0,-2.0,-11.0
17.280443906784058,,,-44.0,-1254.0,2327.0,1.0,0.0,-11.0
17.301047325134277,,,141.0,-1171.0,2121.0,2.0,2.0,-12.0
17.32144331932068,,,211.0,-1181.0,2065.0,3.0,1.0,-13.0
17.342023372650146,,,245.0,-1238.0,2031.0,3.0,-1.0,-14.0
17.36246395111084,,,264.0,-1306.0,2031.0,2.0,-3.0,-16.0
17.38306498527527,,,265.0,-1361.0,2124.0,3.0,-8.0,-26.0
17.403400659561157,,,252.0,-1399.0,2159.0,3.0,-10.0,-32.0
17.42388343811035,,,328.0,-1659.0,2182.0,2.0,-13.0,-40.0
17.444469451904297,,,390.0,-1714.0,2167.0,1.0,-13.0,-40.0
17.464841842651367,,,422.0,-1677.0,2134.0,0.0,-12.0,-36.0
17.485255002975464,,,370.0,-1457.0,2186.0,-3.0,-10.0,-20.0
17.505773544311523,,,295.0,-1338.0,2309.0,-3.0,-10.0,-13.0
17.526228666305542,,,227.0,-1250.0,2395.0,-4.0,-10.0,-9.0
17.546727180480957,,,239.0,-1237.0,2211.0,-6.0,-11.0,-10.0
17.567259788513184,,,245.0,-1231.0,2038.0,-5.0,-11.0,-13.0
17.58780312538147,,,78.0,-1119.0,1977.0,-4.0,-11.0,-15.0
17.60836958885193,,,-17.0,-988.0,2063.0,-4.0,-11.0,-12.0
17.62862539291382,,,-64.0,-843.0,2138.0,-5.0,-10.0,-8.0
17.64923119544983,,,-59.0,-660.0,2164.0,-6.0,-8.0,-2.0
17.669677734375,,,-54.0,-631.0,2090.0,-5.0,-7.0,-2.0
17.69021511077881,,,-69.0,-647.0,2017.0,-5.0,-7.0,-1.0
17.710569381713867,,,-114.0,-662.0,1928.0,-4.0,-6.0,-3.0
17.731199502944946,,,-123.0,-639.0,1928.0,-3.0,-5.0,-4.0
17.751665830612183,,,-134.0,-618.0,1977.0,-3.0,-6.0,-5.0
17.772119760513306,,,-143.0,-551.0,2009.0,-2.0,-4.0,-4.0
17.792469024658203,,,-161.0,-584.0,1987.0,-1.0,-3.0,-4.0
17.812947511672974,,,-184.0,-670.0,2014.0,-1.0,-3.0,-3.0
17.83336353302002,,,-141.0,-674.0,2049.0,-1.0,-3.0,-3.0
17.85399842262268,,,-92.0,-638.0,2079.0,-1.0,-3.0,-3.0
17.874414920806885,,,-91.0,-610.0,2082.0,-1.0,-2.0,-1.0
17.894990921020508,,,-117.0,-633.0,2010.0,-1.0,-2.0,1.0
17.915362119674683,,,-130.0,-661.0,1927.0,-2.0,-1.0,1.0
17.935810804367065,,,-179.0,-708.0,1845.0,-1.0,-1.0,-2.0
17.952292442321777,,,-183.0,-733.0,1839.0,-2.0,-2.0,-3.0
17.97275686264038,,,-172.0,-737.0,1842.0,-2.0,-2.0,-4.0
17.993240118026733,,,-174.0,-747.0,1883.0,-2.0,-3.0,-6.0
18.013901472091675,,,-162.0,-743.0,1920.0,-3.0,-3.0,-6.0
18.034151077270508,,,-151.0,-692.0,2000.0,-3.0,-4.0,-5.0
18.05470848083496,,,-148.0,-551.0,2158.0,-3.0,-4.0,-3.0
18.075058221817017,,,-189.0,-532.0,2179.0,-3.0,-4.0,-2.0
18.095635890960693,,,-239.0,-586.0,2040.0,-3.0,-4.0,-3.0
18.116156101226807,,,-235.0,-603.0,1949.0,-4.0,-4.0,-4.0
18.136669874191284,,,-210.0,-570.0,1914.0,-4.0,-4.0,-4.0
18.15701699256897,,,-191.0,-502.0,2054.0,-5.0,-4.0,-3.0
18.1775381565094,,,-170.0,-484.0,2096.0,-5.0,-4.0,-2.0
18.19799780845642,,,-145.0,-472.0,2096.0,-5.0,-3.0,-2.0
18.218424320220947,,,-128.0,-483.0,2064.0,-4.0,-3.0,-2.0
18.239001274108887,,,-116.0,-485.0,2065.0,-4.0,-3.0,-1.0
18.25961470603943,,,-95.0,-463.0,2080.0,-3.0,-3.0,0.0
18.279937267303467,,,-91.0,-449.0,2073.0,-3.0,-2.0,1.0
18.300397157669067,,,-104.0,-495.0,2030.0,-3.0,-1.0,1.0
18.320897340774536,,,-135.0,-589.0,2009.0,-2.0,-1.0,0.0
18.34133291244507,,,-134.0,-584.0,2031.0,-2.0,-1.0,0.0
18.361770629882812,,,-140.0,-564.0,2066.0,-2.0,-1.0,1.0
18.38234853744507,,,-186.0,-512.0,2127.0,-2.0,-2.0,3.0
18.402735233306885,,,-228.0,-484.0,2113.0,-2.0,-1.0,3.0
18.423298835754395,,,-266.0,-496.0,2088.0,-3.0,-1.0,3.0
18.4437575340271,,,-257.0,-558.0,2065.0,-3.0,0.0,0.0
18.464205503463745,,,-228.0,-556.0,2093.0,-3.0,0.0,0.0
18.484641075134277,,,-203.0,-527.0,2147.0,-3.0,0.0,0.0
18.50508952140808,,,-208.0,-484.0,2250.0,-2.0,-1.0,2.0
18.525540590286255,,,-231.0,-503.0,2241.0,-2.0,-1.0,2.0
18.546045303344727,,,-211.0,-532.0,2198.0,-2.0,-1.0,2.0
18.56653356552124,,,-134.0,-547.0,2109.0,-2.0,-1.0,0.0
18.587026596069336,,,-150.0,-528.0,2130.0,-1.0,-1.0,0.0
18.607484340667725,,,-176.0,-478.0,2219.0,-1.0,-2.0,1.0
18.628039121627808,,,-160.0,-470.0,2201.0,-1.0,-2.0,1.0
18.64858651161194,,,-144.0,-485.0,2155.0,0.0,-1.0,1.0
18.669000387191772,,,-189.0,-513.0,2107.0,-1.0,-1.0,0.0
18.689552545547485,,,-182.0,-489.0,2090.0,-1.0,-1.0,1.0
18.710105657577515,,,-163.0,-440.0,2071.0,-2.0,-1.0,1.0
18.7305166721344,,,-171.0,-306.0,2105.0,-2.0,-2.0,2.0
18.751055240631104,,,-240.0,-263.0,2108.0,-1.0,-1.0,2.0
18.771344900131226,,,-306.0,-297.0,2083.0,-2.0,0.0,0.0
18.791915893554688,,,-224.0,-372.0,2017.0,-2.0,1.0,-5.0
18.812446355819702,,,-115.0,-323.0,2053.0,-2.0,1.0,-6.0
18.832976579666138,,,4.0,-195.0,2269.0,0.0,1.0,-4.0
18.853278875350952,,,102.0,-202.0,2274.0,1.0,0.0,-1.0
18.873918056488037,,,245.0,-210.0,2200.0,1.0,0.0,0.0
18.89443588256836,,,389.0,-159.0,2031.0,2.0,1.0,2.0
18.91473364830017,,,324.0,-111.0,2022.0,2.0,1.0,4.0
18.935429573059082,,,215.0,-86.0,2019.0,2.0,1.0,4.0
18.955787181854248,,,60.0,-106.0,1890.0,1.0,1.0,1.0
18.976166486740112,,,17.0,-134.0,1835.0,0.0,2.0,-2.0
18.996670484542847,,,-24.0,-133.0,1857.0,0.0,2.0,-5.0
19.017308473587036,,,-94.0,-55.0,2027.0,-1.0,0.0,-5.0
19.03347897529602,,,-61.0,-14.0,2044.0,-1.0,0.0,-4.0
19.053980350494385,,,-47.0,8.0,2038.0,-2.0,0.0,-4.0
19.07465648651123,,,-181.0,4.0,2147.0,-3.0,-1.0,-3.0
19.09495210647583,,,-216.0,-18.0,2171.0,-3.0,-1.0,-2.0
19.115453720092773,,,-182.0,-65.0,2078.0,-3.0,-1.0,-3.0
19.136061191558838,,,-181.0,-47.0,2080.0,-2.0,-2.0,-3.0
19.160465002059937,,,-188.0,-12.0,2091.0,-1.0,-2.0,-1.0
19.181000232696533,,,-94.0,2.0,1902.0,-2.0,-2.0,3.0
19.201459169387817,,,-49.0,28.0,1768.0,-2.0,-2.0,4.0
19.2219295501709,,,-64.0,81.0,1622.0,-1.0,-1.0,5.0
19.242427825927734,,,-56.0,106.0,1554.0,-1.0,-1.0,5.0
19.262884616851807,,,-26.0,138.0,1480.0,-1.0,-1.0,4.0
19.283478021621704,,,-73.0,183.0,1544.0,-1.0,1.0,1.0
19.303884267807007,,,-151.0,164.0,1675.0,-1.0,2.0,1.0
19.32436203956604,,,-211.0,121.0,1837.0,-2.0,3.0,1.0
19.344804286956787,,,-138.0,122.0,2121.0,-5.0,4.0,6.0
19.365184783935547,,,-20.0,179.0,2216.0,-5.0,4.0,9.0
19.3857102394104,,,84.0,236.0,2280.0,-5.0,4.0,13.0
19.406334400177002,,,164.0,240.0,2292.0,-2.0,3.0,18.0
19.42674207687378,,,228.0,222.0,2181.0,-1.0,5.0,20.0
19.447325468063354,,,324.0,178.0,2042.0,0.0,7.0,24.0
19.467876195907593,,,383.0,73.0,1992.0,-1.0,4.0,28.0
19.488232135772705,,,360.0,25.0,1983.0,-1.0,-3.0,28.0
19.50872302055359,,,332.0,96.0,1689.0,-6.0,-13.0,26.0
19.529277324676514,,,349.0,137.0,1540.0,-8.0,-16.0,21.0
19.549801349639893,,,417.0,202.0,1428.0,-10.0,-16.0,17.0
19.57013487815857,,,677.0,483.0,1287.0,-14.0,-13.0,15.0
19.590578079223633,,,862.0,742.0,1427.0,-19.0,-15.0,22.0
19.61107301712036,,,1020.0,1224.0,1834.0,-22.0,-12.0,35.0
19.63160490989685,,,983.0,2251.0,2698.0,-23.0,-8.0,51.0
19.652029991149902,,,884.0,2340.0,2528.0,-22.0,-9.0,60.0
19.672497272491455,,,879.0,1966.0,2047.0,-23.0,-11.0,69.0
19.69308876991272,,,1136.0,443.0,1289.0,-28.0,-18.0,47.0
19.713525772094727,,,1306.0,-304.0,1098.0,-33.0,-20.0,18.0
19.733943700790405,,,1401.0,-501.0,1606.0,-44.0,-20.0,-27.0
19.750348567962646,,,1386.0,181.0,2366.0,-45.0,-21.0,-33.0
19.770817756652832,,,1533.0,1164.0,3223.0,-46.0,-23.0,-29.0
19.791422128677368,,,2182.0,3109.0,4876.0,-41.0,-22.0,-17.0
19.811809539794922,,,2558.0,3642.0,5299.0,-33.0,-13.0,-15.0
19.832475423812866,,,2932.0,3646.0,5245.0,-25.0,-1.0,-19.0
19.852720260620117,,,2819.0,2958.0,5243.0,-18.0,6.0,-40.0
19.873292446136475,,,2547.0,3086.0,5066.0,-11.0,8.0,-46.0
19.893728017807007,,,2446.0,3453.0,4237.0,0.0,17.0,-48.0
19.91426181793213,,,2532.0,3629.0,1183.0,17.0,52.0,-30.0
19.93484902381897,,,2241.0,3022.0,62.0,18.0,57.0,-22.0
19.955075979232788,,,1440.0,2225.0,50.0,17.0,47.0,-19.0
19.97565531730652,,,-2112.0,1814.0,2742.0,37.0,19.0,-11.0
19.996075868606567,,,-3752.0,1210.0,3632.0,38.0,13.0,-4.0
20.016616821289062,,,-3504.0,-21.0,2987.0,7.0,29.0,14.0
20.036968231201172,,,-2857.0,72.0,3009.0,4.0,36.0,17.0
20.057449340820312,,,-2367.0,589.0,3626.0,10.0,33.0,20.0
20.078044891357422,,,-1897.0,2069.0,4976.0,32.0,17.0,31.0
20.09847903251648,,,-1939.0,2278.0,5142.0,38.0,14.0,31.0
20.11904239654541,,,-2321.0,1919.0,5339.0,41.0,13.0,25.0
20.139421701431274,,,-3235.0,407.0,5817.0,30.0,2.0,14.0
20.159987211227417,,,-3127.0,25.0,5826.0,13.0,-2.0,16.0
20.18038320541382,,,-2568.0,-172.0,5579.0,1.0,-6.0,13.0
20.200922966003418,,,-713.0,-602.0,4665.0,4.0,-6.0,12.0
20.221471548080444,,,133.0,-742.0,4542.0,14.0,-6.0,23.0
20.241902828216553,,,397.0,-1541.0,4115.0,26.0,-20.0,43.0
20.262253761291504,,,321.0,-2617.0,3165.0,15.0,-29.0,49.0
20.282889366149902,,,395.0,-3757.0,1781.0,1.0,-38.0,49.0
20.303249835968018,,,1182.0,-5549.0,-1519.0,-23.0,-53.0,28.0
20.323759078979492,,,1718.0,-6060.0,-2980.0,-27.0,-57.0,10.0
20.344346523284912,,,2115.0,-6195.0,-4327.0,-24.0,-60.0,-13.0
20.364697217941284,,,1209.0,-5568.0,-6223.0,-8.0,-53.0,-86.0
20.38520884513855,,,-206.0,-5211.0,-6116.0,-5.0,-53.0,-122.0
20.405720233917236,,,-1623.0,-5000.0,-5049.0,-14.0,-63.0,-151.0
20.426153421401978,,,-3320.0,-3184.0,-901.0,-43.0,-92.0,-219.0
20.446605920791626,,,-3268.0,-1549.0,1332.0,-56.0,-95.0,-250.0
20.467171907424927,,,-2486.0,556.0,4042.0,-70.0,-85.0,-240.0
20.487593173980713,,,-854.0,1418.0,8369.0,-35.0,-69.0,-131.0
20.508147954940796,,,113.0,1422.0,9238.0,-23.0,-66.0,-73.0
20.528697967529297,,,1720.0,1603.0,9283.0,-3.0,-37.0,-8.0
20.549206495285034,,,1594.0,1391.0,8453.0,-2.0,-23.0,14.0
20.569701671600342,,,1087.0,1220.0,7371.0,-2.0,-18.0,28.0
20.590007305145264,,,348.0,1238.0,3842.0,-6.0,-15.0,45.0
20.610440254211426,,,118.0,1215.0,1458.0,-16.0,-11.0,51.0
20.63098430633545,,,-19.0,1094.0,-958.0,-30.0,-7.0,54.0
20.651435136795044,,,93.0,862.0,-5096.0,-44.0,4.0,43.0
20.67191791534424,,,154.0,582.0,-6454.0,-42.0,6.0,36.0
20.692448616027832,,,293.0,266.0,-7264.0,-35.0,0.0,27.0
20.71297812461853,,,687.0,-387.0,-6955.0,-1.0,-12.0,-35.0
20.733381509780884,,,219.0,-1087.0,-5962.0,15.0,-27.0,-92.0
20.753844261169434,,,-2647.0,-2189.0,-3507.0,32.0,-76.0,-241.0
20.774314403533936,,,-4882.0,-825.0,-1269.0,33.0,-67.0,-314.0
20.794703245162964,,,-6988.0,330.0,2645.0,10.0,-59.0,-334.0
20.811306953430176,,,-6752.0,-229.0,6039.0,-51.0,-56.0,-265.0
20.83160638809204,,,-4223.0,-2231.0,7573.0,-68.0,-29.0,-145.0
20.85213565826416,,,-1616.0,-3791.0,8172.0,-36.0,-5.0,-27.0
20.872626543045044,,,1093.0,-3539.0,9124.0,0.0,27.0,172.0
20.897156953811646,,,1830.0,-2177.0,8403.0,5.0,33.0,205.0
20.917608737945557,,,2180.0,-406.0,6472.0,14.0,35.0,206.0
20.938133239746094,,,1552.0,1140.0,3463.0,16.0,40.0,201.0
20.958648443222046,,,-352.0,1629.0,335.0,5.0,41.0,195.0
20.979246854782104,,,-4315.0,-350.0,-4200.0,-8.0,12.0,157.0
20.999714374542236,,,-4628.0,-1971.0,-6129.0,-6.0,1.0,116.0
21.02001142501831,,,-4077.0,-3664.0,-7750.0,-6.0,-10.0,64.0
21.040516138076782,,,-2472.0,-6117.0,-9750.0,18.0,-25.0,-68.0
21.061096668243408,,,-2632.0,-6502.0,-9907.0,31.0,-30.0,-123.0
21.08139657974243,,,-3488.0,-6232.0,-9580.0,29.0,-39.0,-172.0
21.10202193260193,,,-6232.0,-4418.0,-7454.0,-24.0,-86.0,-339.0
21.122461557388306,,,-7646.0,-267.0,-3401.0,-39.0,-65.0,-431.0
21.142990827560425,,,-8193.0,1555.0,2488.0,-44.0,-63.0,-438.0
21.16338062286377,,,-3267.0,-4612.0,6675.0,-82.0,-54.0,-165.0
21.183917999267578,,,-1044.0,-7301.0,6967.0,-24.0,-37.0,-51.0
21.204335689544678,,,-1355.0,-5986.0,8822.0,7.0,-20.0,131.0
21.22484803199768,,,-1643.0,-3603.0,7801.0,-6.0,-5.0,162.0
21.24533247947693,,,-1857.0,-1394.0,5783.0,-23.0,10.0,164.0
21.261603593826294,,,-1467.0,1040.0,1009.0,-40.0,13.0,112.0
21.282284259796143,,,-822.0,1343.0,-1153.0,-53.0,10.0,73.0
21.302661418914795,,,296.0,1339.0,-2762.0,-63.0,7.0,39.0
21.32318115234375,,,3073.0,389.0,-4106.0,-29.0,8.0,-12.0
21.343647956848145,,,3559.0,-283.0,-4327.0,5.0,5.0,-33.0
21.364096879959106,,,3113.0,-827.0,-4671.0,34.0,-1.0,-49.0
21.384713172912598,,,1584.0,-1075.0,-5978.0,45.0,-5.0,-65.0
21.40503215789795,,,778.0,-912.0,-5939.0,39.0,0.0,-73.0
21.425557613372803,,,-3454.0,-282.0,-2704.0,49.0,-2.0,-107.0
21.445919275283813,,,-7225.0,616.0,-694.0,56.0,-12.0,-121.0
21.466506481170654,,,-9925.0,1258.0,-57.0,-2.0,-21.0,-129.0
21.4869384765625,,,-8601.0,-1094.0,5377.0,-113.0,4.0,-97.0
21.507515907287598,,,-6152.0,-3876.0,7845.0,-111.0,0.0,-57.0
21.527848482131958,,,-3897.0,-5940.0,8953.0,-92.0,-16.0,-6.0
21.54835295677185,,,-3391.0,-5175.0,8797.0,-62.0,-41.0,47.0
21.568897008895874,,,-4208.0,-3635.0,8322.0,-58.0,-51.0,37.0
21.589372873306274,,,-4172.0,-2496.0,7203.0,-57.0,-57.0,28.0
21.609806776046753,,,-2554.0,-1205.0,4169.0,-39.0,-47.0,41.0
21.630390405654907,,,-2281.0,-620.0,2526.0,-35.0,-36.0,48.0
21.650853633880615,,,-2463.0,-141.0,1045.0,-36.0,-26.0,42.0
21.675328254699707,,,-3377.0,400.0,-292.0,-35.0,-17.0,4.0
21.695972442626953,,,-3582.0,328.0,-369.0,-32.0,-20.0,-17.0
21.716448307037354,,,-2966.0,-620.0,-618.0,-13.0,-34.0,-47.0
21.736845016479492,,,-2458.0,-952.0,-996.0,2.0,-35.0,-53.0
21.757278203964233,,,-2381.0,-904.0,-1202.0,12.0,-33.0,-57.0
21.777777194976807,,,-3337.0,79.0,-3.0,4.0,-38.0,-78.0
21.79844570159912,,,-3665.0,448.0,1031.0,-15.0,-45.0,-87.0
21.818712949752808,,,-2301.0,-902.0,2307.0,-45.0,-42.0,-70.0
21.839240074157715,,,-1607.0,-1722.0,2698.0,-41.0,-35.0,-41.0
21.859632968902588,,,-1259.0,-2126.0,2880.0,-33.0,-30.0,-10.0
21.88031268119812,,,-1120.0,-1966.0,2852.0,-18.0,-28.0,18.0
21.900697469711304,,,-1154.0,-1572.0,2707.0,-15.0,-28.0,23.0
21.921318292617798,,,-1238.0,-1175.0,2339.0,-15.0,-26.0,25.0
21.941554307937622,,,-1600.0,-634.0,1492.0,-15.0,-25.0,21.0
21.962093830108643,,,-1746.0,-487.0,1156.0,-12.0,-25.0,14.0
21.978498697280884,,,-1811.0,-357.0,961.0,-8.0,-24.0,5.0
21.99895143508911,,,-1808.0,-161.0,757.0,-2.0,-21.0,-12.0
22.019426345825195,,,-1806.0,-145.0,688.0,1.0,-20.0,-17.0
22.03992986679077,,,-1889.0,-123.0,615.0,5.0,-17.0,-21.0
22.06033730506897,,,-1969.0,-94.0,654.0,4.0,-14.0,-19.0
22.080806493759155,,,-2029.0,-102.0,760.0,1.0,-11.0,-15.0
22.10136318206787,,,-2029.0,-287.0,1121.0,-5.0,-6.0,-2.0
22.1259446144104,,,-2008.0,-367.0,1263.0,-5.0,-4.0,5.0
22.146329641342163,,,-2001.0,-390.0,1334.0,-4.0,-4.0,8.0
22.166954278945923,,,-1994.0,-347.0,1320.0,-4.0,-3.0,9.0
22.18745994567871,,,-1971.0,-252.0,1234.0,-4.0,-2.0,8.0
22.20791792869568,,,-1853.0,-28.0,1099.0,-4.0,0.0,6.0
22.228312730789185,,,-1815.0,32.0,1137.0,-4.0,-1.0,6.0
22.248807430267334,,,-1797.0,51.0,1248.0,-4.0,-3.0,9.0
22.26937484741211,,,-1897.0,29.0,1569.0,-6.0,-7.0,13.0
22.289734840393066,,,-1889.0,10.0,1594.0,-6.0,-7.0,13.0
22.31040930747986,,,-1802.0,50.0,1580.0,-7.0,-4.0,13.0
22.33084225654602,,,-1580.0,446.0,1658.0,-8.0,2.0,15.0
22.351327180862427,,,-1478.0,620.0,1669.0,-8.0,3.0,14.0
22.37175440788269,,,-1395.0,675.0,1666.0,-9.0,1.0,12.0
22.3922381401062,,,-1221.0,574.0,1560.0,-7.0,-5.0,2.0
22.41264295578003,,,-1143.0,502.0,1469.0,-6.0,-7.0,-5.0
22.43327283859253,,,-897.0,479.0,1383.0,-4.0,-8.0,-18.0
22.45361614227295,,,-735.0,520.0,1352.0,-3.0,-6.0,-19.0
22.474202156066895,,,-576.0,504.0,1283.0,-3.0,-4.0,-17.0
22.494547605514526,,,-298.0,359.0,1137.0,-4.0,5.0,-4.0
22.515143156051636,,,-312.0,304.0,1264.0,-3.0,7.0,1.0
22.53559112548828,,,-372.0,231.0,1460.0,-1.0,7.0,2.0
22.5560085773468,,,-586.0,107.0,1705.0,5.0,4.0,1.0
22.57643747329712,,,-724.0,191.0,1739.0,7.0,4.0,-1.0
22.596981048583984,,,-852.0,341.0,1736.0,8.0,3.0,-3.0
22.617452144622803,,,-882.0,476.0,1665.0,6.0,4.0,-3.0
22.63786792755127,,,-790.0,451.0,1644.0,4.0,4.0,0.0
22.658420085906982,,,-717.0,406.0,1620.0,3.0,3.0,4.0
22.67885661125183,,,-672.0,422.0,1460.0,2.0,4.0,10.0
22.69945502281189,,,-663.0,493.0,1416.0,3.0,5.0,9.0
22.71994423866272,,,-673.0,634.0,1392.0,4.0,5.0,4.0
22.74028730392456,,,-704.0,682.0,1377.0,5.0,4.0,2.0
22.760813236236572,,,-735.0,721.0,1376.0,4.0,3.0,0.0
22.781400203704834,,,-678.0,684.0,1449.0,1.0,2.0,-1.0
22.801713466644287,,,-560.0,636.0,1474.0,0.0,3.0,0.0
22.822359561920166,,,-458.0,557.0,1526.0,-1.0,4.0,3.0
22.83865261077881,,,-314.0,309.0,1698.0,-1.0,2.0,7.0
22.85907483100891,,,-321.0,212.0,1702.0,-1.0,-1.0,10.0
22.879613399505615,,,-392.0,207.0,1597.0,-2.0,-2.0,11.0
22.90001153945923,,,-551.0,341.0,1384.0,-4.0,-3.0,7.0
22.920530080795288,,,-529.0,375.0,1430.0,-3.0,-4.0,4.0
22.94111180305481,,,-342.0,356.0,1464.0,1.0,-5.0,0.0
22.96139645576477,,,-315.0,390.0,1402.0,3.0,-4.0,-1.0
22.981919765472412,,,-374.0,441.0,1357.0,4.0,-4.0,-2.0
23.00238800048828,,,-543.0,637.0,1354.0,4.0,-3.0,-4.0
23.02290177345276,,,-649.0,745.0,1393.0,3.0,-2.0,-6.0
23.043551206588745,,,-698.0,771.0,1452.0,3.0,-1.0,-9.0
23.06380581855774,,,-594.0,521.0,1656.0,1.0,-2.0,-11.0
23.084360122680664,,,-523.0,320.0,1739.0,0.0,-2.0,-10.0
23.10491967201233,,,-488.0,118.0,1749.0,-2.0,-4.0,-7.0
23.125386714935303,,,-381.0,-166.0,1560.0,-1.0,-3.0,-6.0
23.145867824554443,,,-291.0,-232.0,1511.0,1.0,-2.0,-4.0
23.16648244857788,,,-201.0,-109.0,1537.0,4.0,-2.0,1.0
23.186883211135864,,,-288.0,42.0,1520.0,3.0,-3.0,4.0
23.207446336746216,,,-420.0,211.0,1446.0,1.0,-2.0,5.0
23.227816820144653,,,-545.0,409.0,1291.0,-1.0,-1.0,2.0
23.24831771850586,,,-535.0,408.0,1286.0,0.0,0.0,1.0
23.268688678741455,,,-523.0,407.0,1362.0,0.0,0.0,0.0
23.289184093475342,,,-556.0,402.0,1634.0,-1.0,-2.0,-3.0
23.309720516204834,,,-540.0,375.0,1678.0,-2.0,-3.0,-3.0
23.330120086669922,,,-514.0,331.0,1651.0,-2.0,-2.0,-2.0
23.350632190704346,,,-488.0,222.0,1564.0,0.0,1.0,-2.0
23.371156215667725,,,-467.0,160.0,1601.0,0.0,1.0,-3.0
23.391583919525146,,,-359.0,83.0,1687.0,0.0,-1.0,-3.0
23.412103176116943,,,-115.0,-57.0,1732.0,3.0,-2.0,-1.0
23.43275237083435,,,-119.0,-70.0,1601.0,3.0,-2.0,-1.0
23.453091859817505,,,-279.0,78.0,1340.0,4.0,1.0,-2.0
23.47354531288147,,,-313.0,177.0,1327.0,3.0,2.0,-2.0
23.49401068687439,,,-290.0,222.0,1412.0,3.0,3.0,-1.0
23.51451086997986,,,-257.0,218.0,1564.0,4.0,2.0,1.0
23.534979820251465,,,-303.0,216.0,1540.0,5.0,2.0,1.0
23.555365324020386,,,-367.0,223.0,1467.0,6.0,3.0,1.0
23.575911283493042,,,-491.0,335.0,1347.0,4.0,4.0,2.0
23.59636926651001,,,-524.0,389.0,1339.0,3.0,4.0,2.0
23.61698007583618,,,-546.0,401.0,1347.0,3.0,3.0,1.0
23.637343406677246,,,-550.0,333.0,1451.0,4.0,0.0,-3.0
23.657773971557617,,,-581.0,298.0,1555.0,5.0,-2.0,-6.0
23.678250789642334,,,-846.0,186.0,1848.0,1.0,-9.0,0.0
23.698700666427612,,,-1077.0,95.0,2071.0,-1.0,-13.0,2.0
23.71922278404236,,,-1383.0,117.0,2239.0,-5.0,-17.0,3.0
23.73976421356201,,,-1861.0,376.0,2099.0,-16.0,-22.0,2.0
23.76018786430359,,,-1893.0,509.0,1957.0,-21.0,-22.0,-1.0
23.780679941177368,,,-1846.0,635.0,1968.0,-23.0,-25.0,-6.0
23.801101446151733,,,-1686.0,919.0,2194.0,-19.0,-38.0,-21.0
23.821653604507446,,,-1636.0,1128.0,2244.0,-17.0,-45.0,-30.0
23.842084169387817,,,-1593.0,1354.0,2201.0,-19.0,-51.0,-38.0
23.86254382133484,,,-1371.0,1669.0,2095.0,-26.0,-55.0,-51.0
23.882997035980225,,,-1133.0,1661.0,2159.0,-29.0,-58.0,-54.0
23.899518966674805,,,-829.0,1511.0,2236.0,-30.0,-60.0,-53.0
23.919931173324585,,,-285.0,1201.0,2134.0,-32.0,-60.0,-44.0
23.940499544143677,,,-110.0,1146.0,1989.0,-33.0,-59.0,-37.0
23.960862636566162,,,81.0,1125.0,1607.0,-36.0,-53.0,-26.0
23.9813814163208,,,192.0,1146.0,1472.0,-37.0,-50.0,-23.0
24.00190782546997,,,296.0,1187.0,1417.0,-36.0,-47.0,-21.0
24.0223650932312,,,395.0,1065.0,1317.0,-35.0,-43.0,-21.0
24.042840480804443,,,460.0,903.0,1228.0,-32.0,-40.0,-22.0
24.063236474990845,,,525.0,804.0,1179.0,-29.0,-36.0,-22.0
24.08363652229309,,,584.0,919.0,1395.0,-24.0,-32.0,-22.0
24.10424256324768,,,580.0,915.0,1528.0,-23.0,-30.0,-23.0
24.124704599380493,,,551.0,827.0,1626.0,-20.0,-28.0,-25.0
24.145116806030273,,,338.0,442.0,1684.0,-18.0,-23.0,-28.0
24.165910959243774,,,203.0,161.0,1733.0,-18.0,-20.0,-28.0
24.19039511680603,,,11.0,-466.0,1880.0,-15.0,-14.0,-26.0
24.21076774597168,,,-26.0,-667.0,1996.0,-11.0,-12.0,-22.0
24.231292724609375,,,-92.0,-785.0,2067.0,-7.0,-11.0,-19.0
24.25168013572693,,,-211.0,-699.0,2165.0,-1.0,-11.0,-17.0
24.27217698097229,,,-204.0,-548.0,2171.0,0.0,-11.0,-16.0
24.29287624359131,,,71.0,-165.0,2378.0,3.0,-8.0,-13.0
24.313199758529663,,,459.0,336.0,2904.0,6.0,-6.0,-9.0
24.333722829818726,,,830.0,1089.0,3466.0,9.0,-6.0,-3.0
24.35406231880188,,,423.0,1795.0,3122.0,2.0,-5.0,9.0
24.374627590179443,,,169.0,1576.0,2796.0,1.0,-3.0,13.0
24.395060062408447,,,127.0,1447.0,2717.0,5.0,1.0,17.0
24.415552854537964,,,110.0,1653.0,2621.0,8.0,2.0,33.0
24.436193704605103,,,-8.0,1710.0,2376.0,3.0,2.0,36.0
24.456523656845093,,,-138.0,1705.0,2050.0,-2.0,3.0,35.0
24.47693705558777,,,-257.0,1826.0,1482.0,-5.0,3.0,26.0
24.497480392456055,,,-250.0,1940.0,1326.0,-3.0,2.0,20.0
24.517961978912354,,,-272.0,2017.0,1204.0,0.0,1.0,17.0
24.5383358001709,,,-414.0,1935.0,959.0,6.0,2.0,15.0
24.55893898010254,,,-501.0,1913.0,886.0,9.0,3.0,15.0
24.57938838005066,,,-623.0,2288.0,995.0,14.0,7.0,13.0
24.59984588623047,,,-675.0,2587.0,1124.0,13.0,7.0,10.0
24.620413303375244,,,-736.0,2807.0,1274.0,9.0,8.0,6.0
24.63678741455078,,,-869.0,2782.0,1611.0,-3.0,12.0,-4.0
24.65715789794922,,,-863.0,2578.0,1865.0,-7.0,14.0,-10.0
24.677661657333374,,,-790.0,2271.0,2164.0,-10.0,15.0,-15.0
24.698262929916382,,,-576.0,1282.0,2538.0,-13.0,13.0,-14.0
24.71865463256836,,,-449.0,661.0,2514.0,-14.0,14.0,-10.0
24.73908042907715,,,-302.0,52.0,2356.0,-14.0,16.0,-3.0
24.759520769119263,,,104.0,-712.0,1959.0,-5.0,23.0,14.0
24.780038118362427,,,311.0,-745.0,1845.0,1.0,26.0,24.0
24.800721406936646,,,488.0,-397.0,1605.0,7.0,33.0,35.0
24.821008682250977,,,448.0,-201.0,1457.0,9.0,36.0,35.0
24.84152579307556,,,400.0,-37.0,1351.0,10.0,40.0,32.0
24.8620126247406,,,363.0,136.0,1337.0,13.0,46.0,29.0
24.88243269920349,,,361.0,102.0,1351.0,14.0,49.0,28.0
24.902854681015015,,,364.0,-12.0,1390.0,15.0,51.0,28.0
24.923489332199097,,,415.0,-295.0,1611.0,19.0,54.0,33.0
24.943897008895874,,,424.0,-431.0,1738.0,21.0,55.0,36.0
24.96434187889099,,,395.0,-537.0,1826.0,23.0,55.0,40.0
24.98483967781067,,,250.0,-592.0,1938.0,26.0,56.0,45.0
25.005399465560913,,,136.0,-549.0,2006.0,26.0,56.0,47.0
25.02582836151123,,,1.0,-479.0,2078.0,26.0,55.0,46.0
25.046318531036377,,,-267.0,-428.0,2203.0,25.0,51.0,43.0
25.066760063171387,,,-493.0,-421.0,2263.0,23.0,47.0,41.0
25.087393760681152,,,-921.0,-482.0,2284.0,16.0,35.0,34.0
25.10779309272766,,,-1057.0,-622.0,2253.0,13.0,30.0,30.0
25.128315448760986,,,-1203.0,-764.0,2223.0,12.0,24.0,24.0
25.14876651763916,,,-1473.0,-880.0,2092.0,8.0,17.0,12.0
25.169155597686768,,,-1555.0,-904.0,2037.0,5.0,13.0,6.0
25.189696311950684,,,-1517.0,-878.0,2008.0,3.0,10.0,2.0
25.210070371627808,,,-1033.0,-747.0,1988.0,0.0,6.0,-5.0
25.230573415756226,,,-696.0,-771.0,1902.0,0.0,5.0,-6.0
25.25124168395996,,,-338.0,-860.0,1786.0,2.0,6.0,-7.0
25.2715482711792,,,214.0,-1046.0,1546.0,4.0,6.0,-3.0
25.291987895965576,,,356.0,-1057.0,1458.0,4.0,6.0,1.0
25.312540292739868,,,297.0,-897.0,1421.0,1.0,6.0,8.0
25.333040475845337,,,202.0,-844.0,1353.0,-1.0,5.0,8.0
25.353502988815308,,,161.0,-836.0,1271.0,-2.0,5.0,6.0
25.37410831451416,,,206.0,-824.0,1197.0,0.0,5.0,0.0
25.394533395767212,,,223.0,-788.0,1204.0,1.0,4.0,-2.0
25.41495990753174,,,231.0,-720.0,1240.0,2.0,3.0,-5.0
25.435460805892944,,,251.0,-608.0,1323.0,1.0,4.0,-5.0
25.456060647964478,,,337.0,-634.0,1353.0,0.0,5.0,-4.0
25.476276874542236,,,432.0,-719.0,1333.0,1.0,7.0,-1.0
25.496909618377686,,,409.0,-851.0,1223.0,2.0,10.0,2.0
25.517338752746582,,,304.0,-839.0,1217.0,3.0,9.0,1.0
25.5378839969635,,,230.0,-812.0,1274.0,3.0,9.0,-1.0
25.558321714401245,,,244.0,-790.0,1416.0,3.0,6.0,-3.0
25.578744649887085,,,295.0,-798.0,1456.0,4.0,5.0,-3.0
25.599268436431885,,,298.0,-794.0,1456.0,5.0,5.0,0.0
25.619707822799683,,,227.0,-767.0,1366.0,4.0,4.0,2.0
25.64032816886902,,,209.0,-735.0,1253.0,3.0,5.0,3.0
25.660666704177856,,,249.0,-640.0,1136.0,4.0,7.0,3.0
25.681153535842896,,,212.0,-615.0,1070.0,5.0,8.0,2.0
25.697534561157227,,,146.0,-566.0,988.0,6.0,8.0,-1.0
25.718167066574097,,,-16.0,-489.0,971.0,5.0,7.0,-7.0
25.738566398620605,,,-3.0,-550.0,1050.0,5.0,5.0,-9.0
25.759079217910767,,,27.0,-675.0,1179.0,5.0,3.0,-11.0
25.779515743255615,,,71.0,-866.0,1226.0,5.0,0.0,-11.0
25.79996347427368,,,179.0,-815.0,1098.0,4.0,2.0,-8.0
25.820456743240356,,,424.0,-601.0,976.0,2.0,9.0,4.0
25.840952157974243,,,432.0,-549.0,953.0,2.0,10.0,7.0
25.86147117614746,,,318.0,-499.0,921.0,2.0,10.0,6.0
25.88188934326172,,,-49.0,-399.0,885.0,2.0,10.0,-4.0
25.90230631828308,,,-133.0,-383.0,926.0,1.0,11.0,-10.0
25.922730922698975,,,-93.0,-432.0,1031.0,1.0,11.0,-14.0
25.943238735198975,,,93.0,-764.0,1177.0,2.0,9.0,-13.0
25.963875770568848,,,112.0,-915.0,1244.0,2.0,7.0,-11.0
25.984230995178223,,,112.0,-974.0,1282.0,2.0,6.0,-9.0
26.004806995391846,,,232.0,-825.0,1294.0,1.0,9.0,-2.0
26.025179386138916,,,279.0,-755.0,1322.0,0.0,10.0,3.0
26.04574704170227,,,261.0,-728.0,1339.0,0.0,9.0,5.0
26.066083908081055,,,-1.0,-627.0,1328.0,1.0,4.0,0.0
26.08668851852417,,,-113.0,-542.0,1263.0,2.0,2.0,-4.0
26.10719394683838,,,-13.0,-456.0,1223.0,3.0,2.0,-9.0
26.12759256362915,,,137.0,-500.0,1262.0,3.0,2.0,-8.0
26.148094654083252,,,262.0,-574.0,1294.0,4.0,1.0,-5.0
26.168535709381104,,,249.0,-630.0,1071.0,4.0,1.0,0.0
26.18919587135315,,,197.0,-583.0,903.0,4.0,3.0,1.0
26.20949363708496,,,188.0,-512.0,852.0,4.0,4.0,1.0
26.23003649711609,,,225.0,-494.0,919.0,5.0,4.0,0.0
26.250508308410645,,,209.0,-458.0,920.0,6.0,4.0,-1.0
26.271008729934692,,,156.0,-390.0,901.0,6.0,4.0,0.0
26.291487216949463,,,35.0,-331.0,793.0,5.0,6.0,0.0
26.311904191970825,,,8.0,-370.0,765.0,5.0,6.0,-1.0
26.332433462142944,,,-38.0,-428.0,789.0,6.0,6.0,-2.0
26.35297966003418,,,-46.0,-420.0,787.0,6.0,7.0,-3.0
26.373290300369263,,,-36.0,-403.0,778.0,5.0,8.0,-2.0
26.393850564956665,,,34.0,-415.0,814.0,2.0,7.0,0.0
26.41430640220642,,,53.0,-416.0,861.0,1.0,6.0,0.0
26.4347984790802,,,42.0,-385.0,869.0,1.0,6.0,1.0
26.45529055595398,,,-17.0,-343.0,854.0,1.0,5.0,0.0
26.47575855255127,,,-5.0,-350.0,863.0,0.0,5.0,-1.0
26.49624276161194,,,40.0,-363.0,885.0,0.0,5.0,-1.0
26.51669192314148,,,71.0,-388.0,928.0,1.0,3.0,0.0
26.537110805511475,,,58.0,-413.0,913.0,1.0,3.0,0.0
26.557656049728394,,,27.0,-397.0,898.0,2.0,3.0,-1.0
26.578296661376953,,,-13.0,-373.0,865.0,2.0,4.0,-2.0
26.598652124404907,,,-8.0,-385.0,867.0,3.0,3.0,-2.0
26.619052171707153,,,34.0,-365.0,901.0,4.0,3.0,-4.0
26.63963007926941,,,61.0,-325.0,896.0,4.0,3.0,-4.0
26.660001754760742,,,82.0,-312.0,871.0,4.0,4.0,-4.0
26.680468320846558,,,125.0,-359.0,820.0,2.0,5.0,-2.0
26.70103406906128,,,148.0,-373.0,779.0,2.0,5.0,-1.0
26.721641302108765,,,146.0,-408.0,737.0,3.0,6.0,-1.0
26.742023468017578,,,112.0,-419.0,753.0,4.0,6.0,-1.0
26.76240873336792,,,80.0,-414.0,802.0,5.0,5.0,-2.0
26.782947540283203,,,33.0,-380.0,810.0,5.0,4.0,-3.0
26.807563543319702,,,69.0,-345.0,767.0,4.0,4.0,-2.0
26.828009366989136,,,121.0,-308.0,756.0,3.0,5.0,-1.0
26.848487377166748,,,181.0,-281.0,779.0,3.0,5.0,0.0
26.868905782699585,,,204.0,-275.0,801.0,3.0,5.0,1.0
26.889517068862915,,,108.0,-336.0,793.0,4.0,4.0,-1.0
26.90990400314331,,,42.0,-351.0,776.0,5.0,3.0,-2.0
26.93035912513733,,,19.0,-325.0,765.0,5.0,3.0,-3.0
26.951039791107178,,,31.0,-336.0,813.0,3.0,3.0,-1.0
26.971356868743896,,,71.0,-398.0,805.0,2.0,1.0,0.0
26.991804838180542,,,116.0,-441.0,789.0,2.0,1.0,1.0
27.012369632720947,,,142.0,-386.0,712.0,2.0,1.0,3.0
27.032872676849365,,,140.0,-320.0,668.0,2.0,2.0,3.0
27.053285121917725,,,130.0,-237.0,671.0,2.0,2.0,3.0
27.07374596595764,,,71.0,-183.0,735.0,2.0,0.0,0.0
27.094300508499146,,,19.0,-222.0,741.0,3.0,-1.0,-2.0
27.114733457565308,,,-51.0,-274.0,702.0,3.0,-2.0,-4.0
27.135314226150513,,,-39.0,-276.0,710.0,2.0,-1.0,-4.0
27.155691385269165,,,-6.0,-317.0,740.0,1.0,-1.0,-2.0
27.176042079925537,,,61.0,-419.0,724.0,2.0,-1.0,0.0
27.192517042160034,,,45.0,-402.0,652.0,3.0,-1.0,-1.0
27.212950229644775,,,-2.0,-337.0,606.0,3.0,0.0,-2.0
27.233470916748047,,,13.0,-269.0,625.0,2.0,-1.0,-4.0
27.253992795944214,,,85.0,-293.0,702.0,1.0,-2.0,-4.0
27.274447917938232,,,162.0,-319.0,809.0,1.0,-2.0,-3.0
27.294909477233887,,,278.0,-318.0,825.0,2.0,-2.0,0.0
27.315521717071533,,,279.0,-288.0,790.0,2.0,-1.0,2.0
27.335895776748657,,,230.0,-287.0,731.0,3.0,-1.0,4.0
27.35643458366394,,,171.0,-286.0,757.0,4.0,-2.0,4.0
27.376774311065674,,,97.0,-255.0,765.0,4.0,-3.0,3.0
27.397380113601685,,,43.0,-179.0,653.0,5.0,-3.0,3.0
27.41779661178589,,,62.0,-127.0,619.0,5.0,-2.0,3.0
27.43833613395691,,,72.0,-81.0,579.0,6.0,-1.0,4.0
27.458754301071167,,,0.0,3.0,450.0,6.0,-1.0,3.0
27.479321241378784,,,-45.0,33.0,426.0,6.0,-2.0,2.0
27.49976372718811,,,-58.0,26.0,434.0,6.0,-2.0,0.0
27.520203590393066,,,-73.0,-193.0,354.0,5.0,-3.0,-3.0
27.54073405265808,,,-79.0,-356.0,184.0,5.0,-4.0,-5.0
27.5611310005188,,,-47.0,-473.0,-37.0,4.0,-3.0,-6.0
27.581658601760864,,,-87.0,-632.0,-12.0,7.0,-3.0,-5.0
27.602140188217163,,,-280.0,-891.0,279.0,10.0,-7.0,-4.0
27.62252449989319,,,-753.0,-1253.0,66.0,15.0,-5.0,-11.0
27.64301300048828,,,-1106.0,-1258.0,-131.0,14.0,-1.0,-12.0
27.663530588150024,,,-1547.0,-1141.0,149.0,13.0,-1.0,-15.0
27.68420720100403,,,-2645.0,-884.0,2012.0,2.0,-18.0,-18.0
27.704522609710693,,,-3080.0,-1012.0,2701.0,-3.0,-25.0,-14.0
27.725066661834717,,,-3716.0,-1148.0,2870.0,-5.0,-32.0,-17.0
27.745413303375244,,,-4727.0,-1328.0,2340.0,-11.0,-44.0,-46.0
27.76634168624878,,,-4717.0,-1433.0,2390.0,-12.0,-54.0,-58.0
27.78640079498291,,,-4521.0,-1369.0,2736.0,-11.0,-69.0,-64.0
27.806908130645752,,,-4229.0,-495.0,2974.0,-9.0,-98.0,-62.0
27.827382564544678,,,-4294.0,162.0,2589.0,-13.0,-105.0,-62.0
27.84783959388733,,,-4225.0,1417.0,2095.0,-25.0,-119.0,-84.0
27.868298530578613,,,-3816.0,1922.0,2501.0,-28.0,-128.0,-98.0
27.888755559921265,,,-3214.0,2453.0,3369.0,-28.0,-140.0,-107.0
27.909482955932617,,,-1807.0,3422.0,4566.0,-27.0,-162.0,-118.0
27.92980194091797,,,-1170.0,3540.0,4420.0,-30.0,-164.0,-124.0
27.950371742248535,,,-584.0,3360.0,4099.0,-30.0,-161.0,-128.0
27.970701217651367,,,441.0,2593.0,3764.0,-22.0,-146.0,-125.0
27.991333723068237,,,811.0,2435.0,3699.0,-17.0,-136.0,-114.0
28.011672258377075,,,1147.0,2353.0,3292.0,-14.0,-124.0,-99.0
28.032201766967773,,,1941.0,1579.0,926.0,-19.0,-83.0,-56.0
28.052730798721313,,,2413.0,916.0,-529.0,-25.0,-59.0,-37.0
28.07310461997986,,,2792.0,94.0,-1824.0,-30.0,-37.0,-22.0
28.093746423721313,,,2457.0,-2810.0,-3930.0,-29.0,-9.0,-5.0
28.11410927772522,,,1470.0,-3852.0,-4223.0,-17.0,-3.0,-7.0
28.134706020355225,,,826.0,-2985.0,-5489.0,2.0,7.0,-12.0
28.15498399734497,,,2059.0,-1873.0,-5514.0,11.0,20.0,-32.0
28.175492525100708,,,4274.0,-17.0,-3200.0,43.0,28.0,-66.0
28.19595241546631,,,5659.0,5236.0,2165.0,22.0,-63.0,-134.0
28.216532945632935,,,4808.0,3723.0,3016.0,-32.0,-61.0,-171.0
28.236959218978882,,,2931.0,1277.0,4797.0,-46.0,-34.0,-171.0
28.257499933242798,,,-957.0,430.0,8103.0,-19.0,-5.0,-38.0
28.27382206916809,,,-1773.0,266.0,9026.0,-8.0,1.0,53.0
28.294286966323853,,,-1942.0,-228.0,9032.0,1.0,16.0,128.0
28.31483221054077,,,-955.0,243.0,7935.0,23.0,29.0,209.0
28.33525514602661,,,44.0,1913.0,6859.0,41.0,2.0,230.0
28.355711460113525,,,170.0,6278.0,858.0,27.0,-35.0,232.0
28.37625503540039,,,-1728.0,7972.0,-2432.0,1.0,-43.0,178.0
28.396784782409668,,,-3968.0,9122.0,-5070.0,-19.0,-52.0,103.0
28.41716504096985,,,-5519.0,10629.0,-8290.0,-27.0,-61.0,-48.0
28.4376437664032,,,-4694.0,11227.0,-8947.0,-31.0,-60.0,-108.0
28.4582679271698,,,-3502.0,11363.0,-8935.0,-55.0,-52.0,-151.0
28.478657722473145,,,-821.0,10473.0,-5767.0,-95.0,-52.0,-229.0
28.499165773391724,,,1218.0,9341.0,-3071.0,-99.0,-60.0,-267.0
28.519681930541992,,,2923.0,7279.0,117.0,-97.0,-67.0,-276.0
28.540183544158936,,,2264.0,2140.0,6067.0,-82.0,-81.0,-217.0
28.560660362243652,,,1035.0,522.0,7701.0,-67.0,-86.0,-161.0
28.581008434295654,,,519.0,-7.0,8302.0,-57.0,-82.0,-98.0
28.60154700279236,,,762.0,-131.0,7227.0,-64.0,-48.0,-32.0
28.62203335762024,,,-16.0,-583.0,6632.0,-67.0,-33.0,-36.0
28.642451286315918,,,-2396.0,-2694.0,5085.0,-55.0,-35.0,-17.0
28.66295886039734,,,-3224.0,-3752.0,3967.0,-48.0,-38.0,13.0
28.683467626571655,,,-3734.0,-4768.0,2592.0,-36.0,-41.0,38.0
28.70401906967163,,,-4232.0,-6931.0,-980.0,6.0,-19.0,83.0
28.724387168884277,,,-4137.0,-7512.0,-2664.0,33.0,-1.0,115.0
28.7449312210083,,,-3383.0,-7501.0,-4127.0,62.0,15.0,139.0
28.76536536216736,,,1146.0,-5871.0,-6846.0,93.0,54.0,149.0
28.785807847976685,,,5867.0,-3620.0,-6680.0,99.0,84.0,130.0
28.80628228187561,,,9466.0,436.0,-5874.0,107.0,85.0,87.0
28.82685399055481,,,10973.0,5742.0,-5359.0,25.0,74.0,-113.0
28.847411632537842,,,9644.0,5210.0,-2986.0,18.0,83.0,-164.0
28.86770248413086,,,6555.0,2409.0,3206.0,39.0,105.0,-159.0
28.88818883895874,,,5109.0,1285.0,6343.0,39.0,129.0,-84.0
28.908830404281616,,,4091.0,888.0,8248.0,47.0,139.0,14.0
28.92913317680359,,,4817.0,2155.0,7522.0,44.0,141.0,144.0
28.949788331985474,,,5442.0,3475.0,6440.0,38.0,142.0,169.0
28.970212936401367,,,5553.0,4902.0,5574.0,40.0,138.0,170.0
28.990689754486084,,,4402.0,7416.0,5110.0,57.0,108.0,142.0
29.011048555374146,,,3467.0,8517.0,5219.0,58.0,78.0,132.0
29.031591653823853,,,2419.0,9125.0,5061.0,55.0,50.0,117.0
29.0520122051239,,,86.0,10235.0,3138.0,47.0,6.0,54.0
29.07256531715393,,,-960.0,10082.0,1815.0,30.0,-9.0,18.0
29.093114137649536,,,-1756.0,9179.0,640.0,15.0,-21.0,-12.0
29.11352777481079,,,-2765.0,6692.0,-720.0,-4.0,-47.0,-54.0
29.133958339691162,,,-2963.0,5451.0,-861.0,-3.0,-63.0,-66.0
29.15460443496704,,,-2832.0,3287.0,-1272.0,10.0,-81.0,-58.0
29.174903392791748,,,-2837.0,2725.0,-1809.0,12.0,-85.0,-46.0
29.195493698120117,,,-3141.0,2622.0,-2244.0,6.0,-85.0,-39.0
29.216151475906372,,,-2591.0,4495.0,-755.0,3.0,-61.0,-71.0
29.236464500427246,,,-1553.0,6641.0,643.0,6.0,-54.0,-96.0
29.256829500198364,,,-1067.0,6576.0,1858.0,-64.0,-49.0,-104.0
29.277382135391235,,,-1642.0,4718.0,2760.0,-81.0,-48.0,-110.0
29.29791283607483,,,-2336.0,2860.0,4005.0,-83.0,-48.0,-109.0
29.318360090255737,,,-3157.0,759.0,6178.0,-56.0,-60.0,-68.0
29.33875608444214,,,-3308.0,48.0,6296.0,-44.0,-65.0,-29.0
29.359379768371582,,,-3357.0,-698.0,5807.0,-39.0,-71.0,17.0
29.379796028137207,,,-3103.0,-2475.0,2918.0,-34.0,-80.0,102.0
29.400301933288574,,,-3015.0,-3458.0,527.0,-32.0,-80.0,134.0
29.42074203491211,,,-3095.0,-4541.0,-2235.0,-30.0,-77.0,165.0
29.441112995147705,,,-2168.0,-5401.0,-7232.0,-20.0,-43.0,229.0
29.461747646331787,,,-678.0,-4177.0,-8593.0,-18.0,-33.0,228.0
29.48215937614441,,,1511.0,305.0,-9053.0,-6.0,-38.0,122.0
29.50258231163025,,,1650.0,2633.0,-8927.0,-10.0,-30.0,55.0
29.5230872631073,,,1683.0,4349.0,-8366.0,-24.0,-16.0,-17.0
29.543587684631348,,,4830.0,5956.0,-4032.0,-13.0,15.0,-135.0
29.5641348361969,,,6591.0,6339.0,-1099.0,2.0,14.0,-163.0
29.58451271057129,,,7159.0,6381.0,1507.0,-24.0,4.0,-159.0
29.605095148086548,,,3449.0,3435.0,4915.0,-73.0,18.0,-105.0
29.62544298171997,,,571.0,1680.0,5635.0,-71.0,30.0,-66.0
29.645996809005737,,,-1922.0,384.0,5722.0,-56.0,37.0,-14.0
29.666428565979004,,,-3816.0,-169.0,4762.0,-11.0,30.0,58.0
29.686975717544556,,,-3355.0,642.0,4694.0,1.0,20.0,57.0
29.707385063171387,,,-2521.0,1769.0,5574.0,-1.0,14.0,45.0
29.727895498275757,,,-952.0,4465.0,7333.0,-21.0,21.0,-4.0
29.748411655426025,,,-821.0,5288.0,7863.0,-43.0,11.0,-39.0
29.76880717277527,,,-1953.0,3406.0,8275.0,-64.0,-4.0,-55.0
29.78939175605774,,,-2639.0,2076.0,8148.0,-67.0,-11.0,-51.0
29.809815406799316,,,-3088.0,869.0,7918.0,-63.0,-21.0,-47.0
29.830302000045776,,,-3492.0,-561.0,6590.0,-47.0,-28.0,-15.0
29.850942373275757,,,-3766.0,-1024.0,5544.0,-37.0,-26.0,2.0
29.87125539779663,,,-3986.0,-1474.0,4656.0,-25.0,-24.0,15.0
29.89168119430542,,,-3741.0,-1885.0,3395.0,-6.0,-22.0,43.0
29.912337064743042,,,-3322.0,-1671.0,2794.0,-1.0,-23.0,55.0
29.932908058166504,,,-2849.0,-1260.0,2174.0,3.0,-23.0,63.0
29.95305585861206,,,-2397.0,-705.0,1496.0,7.0,-22.0,67.0
29.973648071289062,,,-1995.0,-63.0,866.0,11.0,-19.0,67.0
29.994154691696167,,,-1192.0,1205.0,241.0,18.0,-15.0,52.0
30.014528036117554,,,-806.0,1663.0,170.0,18.0,-14.0,40.0
30.035043001174927,,,-540.0,1973.0,130.0,16.0,-15.0,28.0
30.05563449859619,,,-351.0,2153.0,89.0,12.0,-15.0,15.0
30.07601022720337,,,-195.0,2216.0,109.0,9.0,-14.0,4.0
30.096534490585327,,,-35.0,2202.0,230.0,7.0,-13.0,-6.0
30.117018938064575,,,189.0,1960.0,745.0,3.0,-9.0,-16.0
30.137462615966797,,,206.0,1718.0,1096.0,1.0,-7.0,-17.0
30.15798258781433,,,165.0,1420.0,1433.0,-1.0,-4.0,-14.0
30.178393125534058,,,104.0,898.0,1997.0,2.0,0.0,-1.0
30.198879718780518,,,160.0,838.0,2257.0,3.0,1.0,6.0
30.219531297683716,,,296.0,1024.0,2695.0,0.0,0.0,11.0
30.239840984344482,,,323.0,1094.0,2833.0,-2.0,-1.0,9.0
30.260315656661987,,,323.0,1104.0,2885.0,-4.0,-1.0,6.0
30.280977725982666,,,306.0,1025.0,2704.0,-5.0,-3.0,1.0
30.3013277053833,,,371.0,997.0,2578.0,-5.0,-3.0,-2.0
30.321767568588257,,,478.0,959.0,2489.0,-6.0,-4.0,-5.0
30.34238910675049,,,564.0,798.0,2389.0,-10.0,-5.0,-10.0
30.36276865005493,,,540.0,662.0,2370.0,-11.0,-5.0,-14.0
30.383315086364746,,,501.0,530.0,2372.0,-11.0,-5.0,-17.0
30.403688430786133,,,352.0,301.0,2352.0,-11.0,-5.0,-20.0
30.42006206512451,,,243.0,172.0,2334.0,-10.0,-5.0,-20.0
30.44060206413269,,,55.0,-30.0,2261.0,-7.0,-4.0,-17.0
30.461040258407593,,,11.0,-59.0,2208.0,-5.0,-4.0,-15.0
30.481576919555664,,,47.0,-29.0,2200.0,-3.0,-4.0,-13.0
30.50200390815735,,,334.0,204.0,2294.0,-3.0,-4.0,-13.0
30.522434949874878,,,432.0,320.0,2283.0,-4.0,-4.0,-14.0
30.54309391975403,,,485.0,412.0,2238.0,-5.0,-4.0,-16.0
30.563371419906616,,,594.0,499.0,2190.0,-4.0,-3.0,-24.0
30.58388638496399,,,663.0,517.0,2236.0,-4.0,-3.0,-27.0
30.604461431503296,,,733.0,491.0,2321.0,-4.0,-4.0,-30.0
30.624916791915894,,,737.0,363.0,2492.0,-7.0,-6.0,-32.0
30.64538311958313,,,590.0,261.0,2449.0,-9.0,-8.0,-31.0
30.665789127349854,,,406.0,134.0,2350.0,-11.0,-7.0,-28.0
30.68626642227173,,,285.0,-67.0,2323.0,-12.0,-7.0,-23.0
30.706809043884277,,,342.0,-85.0,2350.0,-11.0,-9.0,-22.0
30.727338552474976,,,464.0,-13.0,2274.0,-11.0,-10.0,-23.0
30.747682094573975,,,500.0,1.0,2212.0,-11.0,-10.0,-25.0
30.768247365951538,,,507.0,2.0,2184.0,-9.0,-10.0,-26.0
30.78886365890503,,,460.0,15.0,2183.0,-7.0,-11.0,-27.0
30.809199571609497,,,441.0,-12.0,2144.0,-6.0,-9.0,-26.0
30.829789876937866,,,453.0,-17.0,2082.0,-4.0,-7.0,-25.0
30.850217580795288,,,423.0,216.0,2165.0,-4.0,-8.0,-24.0
30.870720863342285,,,422.0,369.0,2271.0,-2.0,-9.0,-30.0
30.891102075576782,,,491.0,499.0,2334.0,0.0,-10.0,-38.0
30.911645889282227,,,663.0,547.0,2364.0,2.0,-9.0,-43.0
30.93215847015381,,,667.0,472.0,2370.0,3.0,-10.0,-40.0
30.95257043838501,,,571.0,329.0,2365.0,4.0,-10.0,-30.0
30.973013162612915,,,535.0,330.0,2271.0,4.0,-8.0,-25.0
30.993536710739136,,,546.0,371.0,2101.0,5.0,-6.0,-19.0
31.01401686668396,,,561.0,446.0,1896.0,4.0,2.0,-1.0
31.034515619277954,,,370.0,204.0,1968.0,8.0,11.0,17.0
31.054921865463257,,,300.0,-222.0,1798.0,13.0,29.0,31.0
31.075493812561035,,,732.0,-238.0,1749.0,5.0,30.0,32.0
31.09597873687744,,,801.0,154.0,1814.0,1.0,22.0,35.0
31.116453170776367,,,853.0,810.0,1830.0,3.0,11.0,18.0
31.136850833892822,,,1212.0,2544.0,1622.0,7.0,-8.0,-63.0
31.16142439842224,,,1447.0,2980.0,1465.0,5.0,-12.0,-95.0
31.181989669799805,,,1557.0,2889.0,1496.0,3.0,-13.0,-108.0
31.202401399612427,,,1453.0,2450.0,1819.0,2.0,-14.0,-102.0
31.222896575927734,,,739.0,1422.0,2750.0,0.0,-15.0,-62.0
31.243274688720703,,,391.0,1074.0,3040.0,0.0,-13.0,-41.0
31.26376223564148,,,238.0,932.0,3125.0,0.0,-12.0,-22.0
31.28435230255127,,,481.0,1187.0,2712.0,0.0,-11.0,2.0
31.304804801940918,,,752.0,1416.0,2368.0,0.0,-12.0,5.0
31.325266361236572,,,1044.0,1598.0,2076.0,-1.0,-13.0,4.0
31.34585738182068,,,1454.0,1633.0,1786.0,-2.0,-16.0,-7.0
31.36641263961792,,,1469.0,1508.0,1704.0,-3.0,-18.0,-11.0
31.386703491210938,,,1218.0,1158.0,1561.0,-6.0,-18.0,-12.0
31.40721845626831,,,1124.0,957.0,1518.0,-7.0,-16.0,-11.0
31.42776083946228,,,1092.0,783.0,1543.0,-7.0,-14.0,-8.0
31.448299169540405,,,1091.0,671.0,1597.0,-7.0,-13.0,-6.0
31.468717098236084,,,1046.0,495.0,1712.0,-8.0,-9.0,-4.0
31.489163160324097,,,994.0,421.0,1741.0,-9.0,-7.0,-4.0
31.50970697402954,,,850.0,318.0,1796.0,-10.0,-2.0,-6.0
31.53021502494812,,,763.0,273.0,1872.0,-10.0,0.0,-7.0
31.550573110580444,,,658.0,223.0,1976.0,-10.0,0.0,-7.0
31.571168422698975,,,374.0,109.0,2182.0,-7.0,1.0,-5.0
31.59154438972473,,,232.0,62.0,2258.0,-5.0,1.0,-3.0
31.61195707321167,,,123.0,40.0,2319.0,-3.0,2.0,-1.0
31.6324303150177,,,15.0,69.0,2298.0,0.0,3.0,3.0
31.65297031402588,,,29.0,127.0,2231.0,2.0,4.0,5.0
31.67339563369751,,,200.0,275.0,2152.0,6.0,4.0,5.0
31.694018840789795,,,289.0,385.0,2118.0,7.0,4.0,4.0
31.714413166046143,,,363.0,499.0,2104.0,8.0,4.0,3.0
31.73485279083252,,,463.0,664.0,2130.0,8.0,4.0,0.0
31.755406618118286,,,479.0,729.0,2150.0,9.0,4.0,0.0
31.775737762451172,,,448.0,863.0,2182.0,9.0,5.0,2.0
31.796433210372925,,,466.0,909.0,2224.0,9.0,5.0,3.0
31.816802263259888,,,484.0,944.0,2244.0,8.0,4.0,4.0
31.83732032775879,,,446.0,956.0,2218.0,6.0,3.0,5.0
31.85769510269165,,,438.0,940.0,2193.0,6.0,3.0,5.0
31.878192901611328,,,464.0,917.0,2156.0,5.0,2.0,5.0
31.898753881454468,,,546.0,826.0,2107.0,4.0,1.0,4.0
31.919163942337036,,,574.0,779.0,2088.0,4.0,0.0,3.0
31.93969225883484,,,582.0,750.0,2076.0,4.0,0.0,2.0
31.960144758224487,,,559.0,762.0,1974.0,3.0,-1.0,-1.0
31.980641841888428,,,537.0,738.0,1938.0,3.0,-1.0,-2.0
32.001290798187256,,,500.0,694.0,1922.0,2.0,0.0,-3.0
32.021665811538696,,,440.0,654.0,1905.0,2.0,0.0,-2.0
32.042094230651855,,,443.0,659.0,1872.0,3.0,0.0,-2.0
32.062527656555176,,,463.0,706.0,1765.0,2.0,0.0,-4.0
32.08297085762024,,,473.0,719.0,1765.0,1.0,1.0,-5.0
32.103485107421875,,,478.0,729.0,1813.0,1.0,1.0,-6.0
32.12397909164429,,,384.0,734.0,1887.0,-1.0,0.0,-7.0
32.14443826675415,,,334.0,700.0,1931.0,-1.0,0.0,-7.0
32.16498565673828,,,320.0,653.0,1989.0,-1.0,0.0,-5.0
32.185457706451416,,,321.0,544.0,2130.0,-2.0,0.0,0.0
32.20587706565857,,,318.0,500.0,2191.0,-2.0,0.0,2.0
32.226378202438354,,,324.0,483.0,2213.0,-2.0,0.0,3.0
32.24681758880615,,,334.0,484.0,2163.0,-3.0,0.0,2.0
32.26726484298706,,,348.0,476.0,2136.0,-3.0,-1.0,2.0
32.287776708602905,,,308.0,421.0,2015.0,-4.0,-2.0,1.0
32.30850338935852,,,263.0,391.0,1939.0,-4.0,-1.0,2.0
32.32873058319092,,,241.0,356.0,1899.0,-3.0,-1.0,2.0
32.34937787055969,,,288.0,323.0,1906.0,-3.0,1.0,3.0
32.36969304084778,,,294.0,351.0,1885.0,-3.0,1.0,3.0
32.390326261520386,,,284.0,400.0,1854.0,-3.0,2.0,2.0
32.410730600357056,,,296.0,460.0,1951.0,-2.0,3.0,-1.0
32.431220054626465,,,282.0,460.0,2063.0,-2.0,3.0,-1.0
32.451744556427,,,242.0,425.0,2189.0,-2.0,3.0,-1.0
32.472129821777344,,,140.0,344.0,2366.0,-2.0,2.0,3.0
32.49255156517029,,,105.0,314.0,2379.0,-2.0,2.0,4.0
32.5131151676178,,,70.0,328.0,2339.0,-1.0,2.0,5.0
32.53361201286316,,,74.0,325.0,2223.0,-1.0,1.0,4.0
32.5540657043457,,,122.0,299.0,2203.0,0.0,0.0,3.0
32.57455110549927,,,199.0,263.0,2160.0,0.0,-1.0,2.0
32.59513545036316,,,226.0,268.0,2124.0,-1.0,-1.0,0.0
32.615439891815186,,,225.0,277.0,2086.0,-1.0,-1.0,-1.0
32.63598680496216,,,216.0,267.0,2070.0,0.0,-1.0,-2.0
32.65653109550476,,,213.0,271.0,2068.0,0.0,-1.0,-3.0
32.677013874053955,,,192.0,288.0,2060.0,0.0,-1.0,-2.0
32.69742012023926,,,106.0,292.0,1984.0,0.0,0.0,-1.0
32.71798920631409,,,97.0,276.0,2002.0,0.0,0.0,-1.0
32.738383769989014,,,123.0,252.0,2021.0,0.0,0.0,0.0
32.758933544158936,,,140.0,241.0,2016.0,-1.0,1.0,1.0
32.77943301200867,,,124.0,250.0,2005.0,-1.0,1.0,1.0
32.79568099975586,,,119.0,263.0,2024.0,0.0,1.0,-1.0
32.81628203392029,,,101.0,265.0,2048.0,0.0,1.0,0.0
32.836631774902344,,,78.0,250.0,2075.0,0.0,1.0,0.0
32.85713291168213,,,45.0,213.0,2110.0,0.0,0.0,1.0
32.877620220184326,,,55.0,203.0,2108.0,0.0,0.0,1.0
32.898064851760864,,,75.0,206.0,2101.0,0.0,0.0,1.0
32.91860747337341,,,114.0,215.0,2076.0,0.0,0.0,0.0
32.938981771469116,,,140.0,210.0,2070.0,1.0,0.0,0.0
32.95950722694397,,,162.0,211.0,2056.0,1.0,0.0,0.0
32.98003077507019,,,163.0,208.0,2026.0,0.0,1.0,0.0
33.000436544418335,,,151.0,216.0,2014.0,0.0,1.0,0.0
33.02098250389099,,,135.0,211.0,2018.0,0.0,1.0,1.0
33.0413556098938,,,89.0,198.0,2004.0,0.0,1.0,1.0
33.06191802024841,,,86.0,191.0,1989.0,0.0,1.0,1.0
33.0825035572052,,,79.0,182.0,2003.0,0.0,2.0,0.0
33.102895736694336,,,61.0,170.0,2018.0,0.0,2.0,1.0
33.12339544296265,,,45.0,154.0,2029.0,0.0,2.0,1.0
33.14376497268677,,,59.0,164.0,2013.0,0.0,2.0,1.0
33.16429948806763,,,72.0,184.0,2014.0,0.0,2.0,1.0
33.184752225875854,,,82.0,204.0,2021.0,0.0,2.0,1.0
33.205321073532104,,,59.0,236.0,2026.0,-1.0,2.0,0.0
33.22577953338623,,,42.0,238.0,2041.0,-1.0,2.0,-1.0
33.24626016616821,,,20.0,226.0,2074.0,-1.0,1.0,0.0
33.266709089279175,,,11.0,166.0,2168.0,0.0,0.0,1.0
33.28716707229614,,,34.0,140.0,2199.0,-1.0,0.0,1.0
33.307637214660645,,,76.0,170.0,2191.0,-1.0,0.0,0.0
33.32814860343933,,,100.0,180.0,2190.0,-1.0,-1.0,-2.0
33.348668575286865,,,105.0,195.0,2184.0,-1.0,-1.0,-3.0
33.36911082267761,,,109.0,230.0,2161.0,0.0,-1.0,-4.0
33.38957977294922,,,73.0,252.0,2134.0,-1.0,-1.0,-3.0
33.41004824638367,,,34.0,306.0,2118.0,-1.0,-1.0,-2.0
33.43051600456238,,,23.0,264.0,2190.0,-3.0,-1.0,6.0
33.45106244087219,,,-21.0,157.0,2178.0,-4.0,-1.0,11.0
33.47141242027283,,,-34.0,86.0,2113.0,-5.0,0.0,13.0
33.49212694168091,,,129.0,240.0,2031.0,-2.0,-2.0,3.0
33.512606143951416,,,229.0,430.0,1955.0,-1.0,-4.0,-5.0
33.532992362976074,,,276.0,556.0,1885.0,-1.0,-5.0,-11.0
33.55345845222473,,,175.0,506.0,1824.0,-3.0,-3.0,-10.0
33.574026584625244,,,122.0,420.0,1808.0,-3.0,-3.0,-6.0
33.59437108039856,,,167.0,378.0,1602.0,-4.0,0.0,3.0
33.6147894859314,,,326.0,384.0,1617.0,-6.0,1.0,4.0
33.63540744781494,,,585.0,390.0,1787.0,-7.0,-1.0,3.0
33.65598130226135,,,857.0,579.0,1839.0,-13.0,-7.0,-3.0
33.676475524902344,,,719.0,694.0,1613.0,-16.0,-8.0,-7.0
33.69677114486694,,,465.0,724.0,1383.0,-17.0,-8.0,-12.0
33.71731996536255,,,-6.0,552.0,1233.0,-14.0,-6.0,-13.0
33.7378032207489,,,-125.0,304.0,1363.0,-14.0,-5.0,-7.0
33.758291721343994,,,-171.0,4.0,1520.0,-15.0,-5.0,0.0
33.778719902038574,,,-316.0,-425.0,1471.0,-19.0,0.0,11.0
33.799216508865356,,,-444.0,-492.0,1381.0,-19.0,5.0,12.0
33.81960916519165,,,-346.0,-521.0,1665.0,-15.0,10.0,6.0
33.84009647369385,,,-138.0,-533.0,2106.0,-14.0,10.0,1.0
33.86057376861572,,,-56.0,-535.0,2542.0,-15.0,8.0,-4.0
33.8769965171814,,,-414.0,-622.0,3085.0,-13.0,5.0,-8.0
33.89746117591858,,,-626.0,-630.0,3220.0,-11.0,4.0,-5.0
33.91798424720764,,,-761.0,-557.0,3239.0,-9.0,3.0,0.0
33.93847346305847,,,-839.0,-339.0,3087.0,-7.0,-2.0,8.0
33.95888304710388,,,-850.0,-223.0,2891.0,-6.0,-3.0,10.0
33.97930431365967,,,-876.0,-53.0,2625.0,-5.0,-3.0,11.0
33.99989438056946,,,-1115.0,421.0,1872.0,0.0,-4.0,12.0
34.020352602005005,,,-1299.0,642.0,1524.0,3.0,-4.0,9.0
34.04079627990723,,,-1472.0,723.0,1323.0,5.0,-4.0,5.0
34.06121778488159,,,-1156.0,87.0,2120.0,9.0,-2.0,3.0
34.08178687095642,,,-434.0,-393.0,3087.0,13.0,-2.0,6.0
34.10231947898865,,,437.0,-162.0,3502.0,0.0,-4.0,12.0
34.12272500991821,,,352.0,-55.0,3497.0,-8.0,-3.0,9.0
34.14321947097778,,,344.0,-184.0,3728.0,-9.0,-3.0,6.0
34.16390919685364,,,556.0,-345.0,3803.0,-5.0,-15.0,11.0
34.18423509597778,,,621.0,-345.0,3440.0,-4.0,-21.0,15.0
34.20468759536743,,,647.0,-303.0,2875.0,-5.0,-23.0,18.0
34.22516489028931,,,686.0,-34.0,1609.0,-10.0,-21.0,17.0
34.24971866607666,,,793.0,146.0,1130.0,-9.0,-19.0,14.0
34.27029895782471,,,1202.0,474.0,563.0,-5.0,-17.0,0.0
34.29076290130615,,,1417.0,565.0,524.0,-4.0,-17.0,-10.0
34.31128168106079,,,1567.0,580.0,635.0,-5.0,-16.0,-20.0
34.33168339729309,,,1451.0,504.0,863.0,-10.0,-14.0,-38.0
34.3521294593811,,,1224.0,437.0,980.0,-11.0,-12.0,-42.0
34.372578620910645,,,1025.0,309.0,1228.0,-12.0,-10.0,-43.0
34.39316439628601,,,739.0,-105.0,2059.0,-15.0,-6.0,-35.0
34.41355323791504,,,547.0,-333.0,2499.0,-17.0,-6.0,-27.0
34.43409967422485,,,-143.0,-544.0,2928.0,-17.0,-6.0,-11.0
34.454503536224365,,,-546.0,-518.0,2866.0,-12.0,-6.0,-8.0
34.475027084350586,,,-775.0,-522.0,2724.0,-5.0,-5.0,-6.0
34.49546408653259,,,-502.0,-668.0,2612.0,-1.0,-3.0,5.0
34.51597213745117,,,-202.0,-685.0,2581.0,-2.0,-2.0,12.0
34.53638768196106,,,10.0,-586.0,2442.0,-4.0,-1.0,17.0
34.55688953399658,,,257.0,-187.0,2040.0,-4.0,1.0,14.0
34.577340602874756,,,403.0,20.0,1949.0,-3.0,2.0,8.0
34.593788862228394,,,542.0,190.0,1936.0,-3.0,3.0,2.0
34.61426663398743,,,643.0,403.0,1968.0,-5.0,3.0,-10.0
34.63475203514099,,,607.0,431.0,2033.0,-7.0,2.0,-13.0
34.65520644187927,,,543.0,410.0,2186.0,-8.0,1.0,-15.0
34.67569017410278,,,261.0,251.0,2477.0,-10.0,-3.0,-15.0
34.69614815711975,,,83.0,185.0,2539.0,-10.0,-4.0,-14.0
34.716667890548706,,,-176.0,38.0,2496.0,-9.0,-5.0,-9.0
34.73715615272522,,,-189.0,-15.0,2462.0,-8.0,-5.0,-7.0
34.75776720046997,,,-127.0,-46.0,2429.0,-9.0,-6.0,-6.0
34.7780978679657,,,-22.0,56.0,2305.0,-12.0,-7.0,-8.0
34.79854083061218,,,-121.0,178.0,2188.0,-14.0,-8.0,-11.0
34.81906008720398,,,-304.0,327.0,2033.0,-15.0,-9.0,-14.0
34.83952784538269,,,-796.0,574.0,1696.0,-17.0,-11.0,-16.0
34.86002802848816,,,-1050.0,634.0,1608.0,-18.0,-12.0,-14.0
34.880500078201294,,,-1280.0,654.0,1606.0,-18.0,-12.0,-10.0
34.901010513305664,,,-1637.0,666.0,1684.0,-15.0,-14.0,-2.0
34.921408891677856,,,-1741.0,748.0,1687.0,-13.0,-13.0,1.0
34.941991567611694,,,-1771.0,1131.0,1721.0,-12.0,-12.0,-1.0
34.962435722351074,,,-1750.0,1304.0,1815.0,-13.0,-11.0,-5.0
34.9829158782959,,,-1637.0,1384.0,2016.0,-12.0,-9.0,-8.0
35.003347635269165,,,-1200.0,1462.0,2728.0,-11.0,-11.0,-11.0
35.02382683753967,,,-1143.0,1620.0,3064.0,-13.0,-16.0,-12.0
35.04435896873474,,,-1219.0,1938.0,3239.0,-16.0,-17.0,-16.0
35.06475043296814,,,-1308.0,2536.0,3472.0,-19.0,-11.0,-36.0
35.08536624908447,,,-1254.0,2388.0,3686.0,-18.0,-4.0,-43.0
35.10579323768616,,,-1125.0,1705.0,3819.0,-14.0,8.0,-44.0
35.126254081726074,,,-272.0,-915.0,4885.0,0.0,14.0,-26.0
35.14677333831787,,,87.0,-1768.0,5325.0,-1.0,1.0,-4.0
35.16724252700806,,,297.0,-2316.0,5846.0,-9.0,-16.0,15.0
35.187596559524536,,,1481.0,-2722.0,6383.0,-2.0,-31.0,30.0
35.208181858062744,,,2201.0,-2280.0,5458.0,-7.0,-34.0,47.0
35.228766679763794,,,2785.0,-1709.0,3195.0,-30.0,-40.0,66.0
35.249104022979736,,,2957.0,-2113.0,2599.0,-35.0,-41.0,53.0
35.26965832710266,,,3339.0,-2723.0,2391.0,-32.0,-39.0,36.0
35.29016160964966,,,4085.0,-2931.0,1878.0,-25.0,-33.0,22.0
35.31054091453552,,,4304.0,-2619.0,1636.0,-22.0,-28.0,21.0
35.331024169921875,,,4449.0,-2281.0,1628.0,-19.0,-22.0,17.0
35.35152077674866,,,4506.0,-1684.0,1946.0,-17.0,-14.0,-2.0
35.37208962440491,,,4260.0,-1248.0,1891.0,-16.0,-10.0,-7.0
35.39248013496399,,,3873.0,-795.0,1719.0,-15.0,-4.0,-10.0
35.41300582885742,,,3075.0,-291.0,1636.0,-11.0,8.0,-18.0
35.433565855026245,,,2612.0,-195.0,1697.0,-10.0,9.0,-22.0
35.453938484191895,,,1567.0,-87.0,1547.0,-6.0,5.0,-23.0
35.474411725997925,,,1169.0,-116.0,1313.0,-3.0,4.0,-21.0
35.49480175971985,,,994.0,-186.0,1100.0,0.0,5.0,-21.0
35.515395164489746,,,1220.0,-232.0,981.0,4.0,8.0,-29.0
35.53590273857117,,,1399.0,-180.0,1059.0,6.0,10.0,-37.0
35.55633068084717,,,1437.0,-60.0,1112.0,8.0,9.0,-47.0
35.576746463775635,,,1087.0,12.0,1122.0,8.0,7.0,-64.0
35.5972900390625,,,848.0,-317.0,1273.0,8.0,5.0,-65.0
35.61770796775818,,,632.0,-897.0,1584.0,9.0,3.0,-58.0
35.638269901275635,,,191.0,-1798.0,2042.0,2.0,-3.0,-19.0
35.65868377685547,,,0.0,-1801.0,1898.0,-3.0,-1.0,0.0
35.67519164085388,,,-4.0,-1650.0,1743.0,-5.0,4.0,12.0
35.69566464424133,,,386.0,-949.0,1669.0,1.0,11.0,23.0
35.71617102622986,,,511.0,-362.0,1620.0,1.0,12.0,24.0
35.73672389984131,,,418.0,576.0,1594.0,-1.0,14.0,16.0
35.757044315338135,,,345.0,908.0,1625.0,-1.0,17.0,12.0
35.77751874923706,,,220.0,1170.0,1690.0,-2.0,19.0,10.0
35.79799032211304,,,-123.0,1437.0,2241.0,-2.0,19.0,8.0
35.81837511062622,,,-298.0,1391.0,2769.0,-2.0,17.0,7.0
35.83892560005188,,,-511.0,1353.0,3217.0,-1.0,15.0,6.0
35.85938906669617,,,-1055.0,1825.0,3050.0,1.0,16.0,11.0
35.879865884780884,,,-1203.0,1992.0,2814.0,3.0,17.0,12.0
35.90044331550598,,,-1145.0,1854.0,2816.0,5.0,16.0,15.0
35.920759439468384,,,-521.0,1338.0,3122.0,10.0,11.0,16.0
35.94132351875305,,,-281.0,1458.0,3010.0,8.0,9.0,11.0
35.961764097213745,,,-558.0,2042.0,2399.0,6.0,14.0,-7.0
35.9823215007782,,,-765.0,2131.0,2339.0,7.0,17.0,-14.0
36.002747535705566,,,-880.0,2070.0,2509.0,9.0,17.0,-16.0
36.02331781387329,,,-1079.0,2205.0,2665.0,6.0,15.0,-8.0
36.04376935958862,,,-1175.0,2339.0,2677.0,3.0,17.0,-4.0
36.06421208381653,,,-1123.0,2428.0,2840.0,3.0,20.0,-1.0
36.08481049537659,,,-370.0,2914.0,3035.0,7.0,27.0,2.0
36.1051390171051,,,376.0,3302.0,3105.0,11.0,30.0,-5.0
36.12570285797119,,,1313.0,3700.0,3440.0,11.0,28.0,-18.0
36.14616894721985,,,2595.0,4341.0,4263.0,-1.0,14.0,-55.0
36.166563272476196,,,2658.0,4544.0,4386.0,-9.0,4.0,-74.0
36.1871063709259,,,2366.0,4728.0,4215.0,-16.0,-4.0,-90.0
36.20757246017456,,,1353.0,4726.0,3722.0,-24.0,-17.0,-109.0
36.22819995880127,,,874.0,4347.0,3755.0,-25.0,-23.0,-114.0
36.248522996902466,,,274.0,2985.0,4415.0,-22.0,-33.0,-115.0
36.26906943321228,,,129.0,2247.0,4646.0,-21.0,-37.0,-110.0
36.28948473930359,,,89.0,1702.0,4546.0,-20.0,-39.0,-104.0
36.309951305389404,,,294.0,1087.0,3656.0,-20.0,-40.0,-105.0
36.33042764663696,,,411.0,733.0,3047.0,-19.0,-38.0,-108.0
36.35094165802002,,,378.0,120.0,2465.0,-17.0,-32.0,-104.0
36.37146759033203,,,558.0,-1928.0,2058.0,-7.0,-22.0,-85.0
36.3917715549469,,,743.0,-2768.0,1971.0,-6.0,-26.0,-77.0
36.41250729560852,,,676.0,-3109.0,1694.0,-9.0,-34.0,-71.0
36.432856798172,,,84.0,-2978.0,1212.0,-5.0,-38.0,-67.0
36.453452348709106,,,109.0,-3112.0,1220.0,2.0,-35.0,-62.0
36.47378945350647,,,856.0,-3887.0,1811.0,5.0,-34.0,-46.0
36.49440002441406,,,1317.0,-4078.0,2112.0,0.0,-33.0,-41.0
36.51478314399719,,,1713.0,-3959.0,2148.0,-7.0,-28.0,-39.0
36.535277128219604,,,2187.0,-3379.0,2020.0,-16.0,-13.0,-32.0
36.55575966835022,,,2376.0,-3150.0,2079.0,-17.0,-8.0,-25.0
36.576171875,,,2490.0,-2876.0,2125.0,-19.0,-9.0,-17.0
36.5966579914093,,,2392.0,-2077.0,1792.0,-26.0,-14.0,-8.0
36.61706900596619,,,2242.0,-1649.0,1421.0,-29.0,-17.0,-9.0
36.63768029212952,,,2050.0,-1230.0,1002.0,-30.0,-19.0,-12.0
36.658087730407715,,,1666.0,-387.0,-68.0,-25.0,-16.0,-8.0
36.67860698699951,,,1633.0,-179.0,-568.0,-20.0,-10.0,-4.0
36.69908404350281,,,1822.0,-142.0,-884.0,-16.0,-6.0,1.0
36.71963143348694,,,2388.0,390.0,-1559.0,-10.0,-10.0,12.0
36.73995494842529,,,2401.0,1117.0,-2284.0,-5.0,-12.0,17.0
36.76051950454712,,,2069.0,2614.0,-3991.0,7.0,-11.0,15.0
36.78107523918152,,,1966.0,2867.0,-4508.0,11.0,-13.0,5.0
36.80149435997009,,,2036.0,2518.0,-4382.0,9.0,-17.0,-11.0
36.82195568084717,,,2427.0,199.0,-1694.0,4.0,-32.0,-58.0
36.842360734939575,,,2564.0,-1388.0,328.0,3.0,-34.0,-70.0
36.862870931625366,,,2469.0,-1420.0,910.0,-27.0,-18.0,-69.0
36.88341236114502,,,2171.0,-543.0,1102.0,-33.0,-9.0,-59.0
36.903860092163086,,,1674.0,266.0,1885.0,-31.0,-3.0,-46.0
36.924408197402954,,,969.0,1448.0,3331.0,-19.0,0.0,-7.0
36.944802045822144,,,840.0,1705.0,3242.0,-16.0,2.0,5.0
36.965431213378906,,,528.0,1588.0,3286.0,-12.0,4.0,9.0
36.9857132434845,,,55.0,-736.0,5336.0,9.0,4.0,38.0
37.006279945373535,,,453.0,-1965.0,5417.0,11.0,-4.0,55.0
37.02670359611511,,,653.0,-2696.0,5265.0,5.0,-8.0,63.0
37.04731297492981,,,342.0,-2434.0,4903.0,4.0,5.0,84.0
37.06761860847473,,,195.0,-2038.0,4285.0,11.0,19.0,95.0
37.08826756477356,,,350.0,-2072.0,3712.0,24.0,27.0,100.0
37.10868811607361,,,1448.0,-3198.0,3150.0,43.0,30.0,109.0
37.12912702560425,,,2265.0,-3637.0,2750.0,44.0,29.0,109.0
37.14970088005066,,,3595.0,-3443.0,1587.0,39.0,27.0,79.0
37.170159578323364,,,3929.0,-3195.0,1234.0,42.0,27.0,57.0
37.19052457809448,,,4226.0,-3115.0,1159.0,51.0,28.0,40.0
37.21098041534424,,,5153.0,-3017.0,1283.0,63.0,26.0,23.0
37.23151874542236,,,5594.0,-2698.0,1129.0,59.0,25.0,14.0
37.25204801559448,,,5858.0,-2271.0,893.0,50.0,26.0,6.0
37.27250790596008,,,5879.0,-1586.0,807.0,33.0,28.0,-6.0
37.293111085891724,,,5658.0,-1345.0,909.0,29.0,24.0,-9.0
37.31352400779724,,,5394.0,-1116.0,933.0,25.0,18.0,-11.0
37.33388638496399,,,4866.0,-793.0,828.0,14.0,7.0,-14.0
37.354538917541504,,,4534.0,-764.0,846.0,7.0,4.0,-17.0
37.37488269805908,,,3575.0,-829.0,1124.0,-6.0,-1.0,-17.0
37.395445585250854,,,2985.0,-726.0,1106.0,-9.0,-2.0,-12.0
37.41595721244812,,,2443.0,-413.0,887.0,-10.0,-3.0,-8.0
37.43630838394165,,,1696.0,790.0,785.0,-14.0,-14.0,-20.0
37.4569194316864,,,1288.0,1340.0,1537.0,-18.0,-23.0,-40.0
37.473341941833496,,,648.0,1463.0,2749.0,-22.0,-22.0,-61.0
37.49368214607239,,,-888.0,1472.0,4830.0,-25.0,-2.0,-73.0
37.51420760154724,,,-1792.0,1673.0,5682.0,-26.0,7.0,-55.0
37.534661054611206,,,-2638.0,1963.0,6511.0,-26.0,15.0,-26.0
37.55512237548828,,,-2956.0,2586.0,7364.0,-25.0,26.0,21.0
37.575517892837524,,,-2684.0,3021.0,7372.0,-23.0,24.0,31.0
37.59619498252869,,,-2882.0,3884.0,6284.0,-15.0,14.0,53.0
37.61662745475769,,,-3338.0,3788.0,5113.0,-9.0,18.0,75.0
37.63717269897461,,,-3723.0,3258.0,3729.0,-6.0,29.0,102.0
37.65750861167908,,,-3582.0,1738.0,1730.0,-12.0,20.0,141.0
37.677966356277466,,,-3081.0,1272.0,790.0,-17.0,1.0,151.0
37.69838905334473,,,-2377.0,1267.0,-336.0,-18.0,-17.0,147.0
37.718960762023926,,,-650.0,2057.0,-3008.0,5.0,-41.0,92.0
37.73944664001465,,,437.0,2431.0,-4691.0,26.0,-41.0,60.0
37.75987195968628,,,1666.0,2527.0,-6349.0,42.0,-30.0,31.0
37.78032898902893,,,3621.0,1156.0,-8408.0,43.0,8.0,-21.0
37.80080032348633,,,4284.0,290.0,-8714.0,30.0,27.0,-40.0
37.82132959365845,,,4641.0,-131.0,-8516.0,8.0,44.0,-52.0
37.84177207946777,,,3821.0,604.0,-6290.0,-18.0,54.0,-68.0
37.862393856048584,,,3017.0,1405.0,-4353.0,-16.0,45.0,-72.0
37.88275170326233,,,1648.0,1774.0,930.0,9.0,8.0,-105.0
37.903271198272705,,,1271.0,718.0,4605.0,14.0,-19.0,-125.0
37.92365479469299,,,387.0,-181.0,7568.0,-25.0,-39.0,-127.0
37.94430661201477,,,-4550.0,397.0,11225.0,-87.0,-36.0,-52.0
37.96467208862305,,,-6634.0,1803.0,11090.0,-60.0,-24.0,11.0
37.985137701034546,,,-6760.0,2221.0,10382.0,-27.0,-18.0,61.0
38.005635023117065,,,-3498.0,615.0,9844.0,2.0,-25.0,88.0
38.026078939437866,,,-1585.0,-49.0,9649.0,-5.0,-32.0,70.0
38.046637535095215,,,-215.0,-191.0,8954.0,-21.0,-37.0,38.0
38.066978454589844,,,146.0,-215.0,6984.0,-40.0,-48.0,-40.0
38.08748173713684,,,-488.0,-363.0,6133.0,-33.0,-52.0,-71.0
38.10798525810242,,,-1238.0,-436.0,5427.0,-20.0,-53.0,-87.0
38.12846779823303,,,-1826.0,-338.0,4790.0,-5.0,-51.0,-88.0
38.14903450012207,,,-2212.0,-70.0,4149.0,5.0,-45.0,-80.0
38.16943430900574,,,-2780.0,589.0,2931.0,9.0,-31.0,-51.0
38.18992280960083,,,-3002.0,775.0,2408.0,10.0,-26.0,-33.0
38.21043062210083,,,-3196.0,759.0,1866.0,9.0,-22.0,-15.0
38.23097825050354,,,-3627.0,312.0,686.0,7.0,-11.0,22.0
38.25138020515442,,,-3769.0,78.0,8.0,6.0,-3.0,39.0
38.271883726119995,,,-3781.0,-86.0,-717.0,4.0,6.0,54.0
38.29239273071289,,,-3303.0,-236.0,-1893.0,0.0,28.0,81.0
38.312814712524414,,,-2825.0,-192.0,-2170.0,1.0,35.0,94.0
38.33332419395447,,,-2277.0,29.0,-2348.0,6.0,38.0,107.0
38.353832960128784,,,-1037.0,833.0,-2931.0,31.0,40.0,126.0
38.3743200302124,,,29.0,974.0,-3151.0,48.0,42.0,128.0
38.39468693733215,,,3323.0,-234.0,-1712.0,80.0,45.0,88.0
38.415284156799316,,,5189.0,-925.0,-289.0,80.0,37.0,54.0
38.43561887741089,,,6350.0,-1115.0,681.0,54.0,31.0,20.0
38.45620536804199,,,5359.0,-1058.0,1730.0,3.0,21.0,-40.0
38.47663640975952,,,4070.0,-1155.0,2067.0,-4.0,14.0,-51.0
38.49722123146057,,,2831.0,-1279.0,2340.0,-1.0,8.0,-47.0
38.51766777038574,,,1119.0,-1385.0,2557.0,11.0,4.0,-20.0
38.53405952453613,,,764.0,-1485.0,2743.0,12.0,3.0,-14.0
38.554561376571655,,,560.0,-1684.0,3144.0,8.0,2.0,-14.0
38.5750036239624,,,-73.0,-1930.0,4161.0,-4.0,-5.0,-8.0
38.59558582305908,,,-617.0,-1681.0,4371.0,-6.0,-7.0,0.0
38.6159942150116,,,-1056.0,-1236.0,4362.0,-4.0,-5.0,10.0
38.6365110874176,,,-1192.0,-6.0,3724.0,7.0,10.0,18.0
38.65689158439636,,,-1053.0,527.0,3454.0,12.0,15.0,16.0
38.67735028266907,,,-1416.0,1189.0,3547.0,7.0,12.0,7.0
38.69786477088928,,,-1972.0,1502.0,3485.0,2.0,10.0,4.0
38.71839118003845,,,-2563.0,1785.0,3350.0,1.0,13.0,4.0
38.738826274871826,,,-3180.0,2041.0,3496.0,17.0,14.0,12.0
38.75933504104614,,,-3082.0,2041.0,3725.0,24.0,12.0,20.0
38.779725074768066,,,-2817.0,1995.0,3893.0,25.0,11.0,26.0
38.80031943321228,,,-2225.0,1923.0,3871.0,17.0,7.0,26.0
38.820672273635864,,,-2054.0,1836.0,3668.0,12.0,3.0,22.0
38.84118700027466,,,-1944.0,1763.0,3323.0,7.0,-1.0,20.0
38.86172151565552,,,-1852.0,1645.0,2489.0,0.0,-7.0,12.0
38.88225507736206,,,-1820.0,1575.0,2052.0,2.0,-9.0,6.0
38.90266299247742,,,-1741.0,1496.0,1612.0,7.0,-9.0,2.0
38.923115730285645,,,-1225.0,1319.0,826.0,16.0,-9.0,-1.0
38.9435670375824,,,-840.0,1234.0,683.0,14.0,-8.0,-4.0
38.96414828300476,,,-259.0,954.0,799.0,4.0,-7.0,-12.0
38.98459243774414,,,-104.0,857.0,856.0,1.0,-7.0,-16.0
39.005096673965454,,,12.0,791.0,928.0,1.0,-6.0,-21.0
39.025543212890625,,,215.0,606.0,1255.0,0.0,-7.0,-32.0
39.04596471786499,,,181.0,554.0,1442.0,-3.0,-9.0,-37.0
39.066396713256836,,,-27.0,537.0,1593.0,-8.0,-10.0,-41.0
39.08693242073059,,,-741.0,440.0,1872.0,-12.0,-13.0,-38.0
39.107385873794556,,,-1075.0,294.0,2028.0,-11.0,-13.0,-33.0
39.12795686721802,,,-1249.0,-224.0,2495.0,-7.0,-15.0,-19.0
39.148375272750854,,,-1103.0,-364.0,2549.0,-6.0,-14.0,-13.0
39.168904066085815,,,-879.0,-356.0,2454.0,-5.0,-12.0,-10.0
39.18943810462952,,,-358.0,-219.0,2373.0,-4.0,-9.0,-12.0
39.20982789993286,,,-130.0,-211.0,2404.0,-4.0,-8.0,-13.0
39.230270862579346,,,12.0,-208.0,2411.0,-6.0,-8.0,-12.0
39.25080418586731,,,-28.0,-85.0,2223.0,-10.0,-8.0,-12.0
39.27137041091919,,,-133.0,-9.0,2057.0,-10.0,-8.0,-13.0
39.291738986968994,,,-262.0,-91.0,1928.0,-6.0,-7.0,-15.0
39.3123242855072,,,-269.0,-195.0,1946.0,-4.0,-7.0,-15.0
39.332900285720825,,,-245.0,-257.0,1943.0,-3.0,-7.0,-15.0
39.35324001312256,,,-164.0,-222.0,1902.0,-3.0,-6.0,-16.0
39.37360882759094,,,-107.0,-214.0,1935.0,-2.0,-5.0,-16.0
39.39427161216736,,,-34.0,-219.0,1975.0,-1.0,-4.0,-15.0
39.414632081985474,,,125.0,-211.0,2009.0,2.0,-3.0,-11.0
39.43522930145264,,,241.0,-203.0,1985.0,3.0,-2.0,-8.0
39.45567750930786,,,362.0,-205.0,1977.0,3.0,-2.0,-7.0
39.47622489929199,,,558.0,-222.0,1991.0,1.0,-1.0,-7.0
39.49653744697571,,,607.0,-194.0,1962.0,-1.0,-1.0,-8.0
39.51703763008118,,,599.0,-69.0,1804.0,-2.0,-3.0,-12.0
39.53743624687195,,,548.0,-33.0,1749.0,-2.0,-3.0,-13.0
39.55806231498718,,,504.0,-58.0,1736.0,-2.0,-3.0,-12.0
39.57839775085449,,,412.0,-113.0,1739.0,-5.0,-4.0,-10.0
39.59900140762329,,,357.0,-89.0,1699.0,-5.0,-4.0,-10.0
39.619377851486206,,,308.0,-45.0,1676.0,-5.0,-4.0,-10.0
39.63990092277527,,,232.0,-73.0,1776.0,-6.0,-4.0,-12.0
39.660388231277466,,,137.0,-63.0,1829.0,-7.0,-3.0,-10.0
39.68082642555237,,,5.0,-31.0,1852.0,-7.0,-3.0,-8.0
39.70141887664795,,,-196.0,-105.0,2019.0,-4.0,-2.0,-5.0
39.72178792953491,,,-121.0,-410.0,2368.0,-3.0,-1.0,-4.0
39.74233651161194,,,115.0,-739.0,2742.0,-2.0,1.0,-2.0
39.76289963722229,,,471.0,-541.0,2770.0,-9.0,1.0,-2.0
39.78328728675842,,,310.0,-238.0,2625.0,-10.0,0.0,-4.0
39.80375695228577,,,-141.0,90.0,2440.0,-6.0,-3.0,-2.0
39.824225664138794,,,-255.0,84.0,2308.0,-2.0,-5.0,1.0
39.84477519989014,,,-273.0,4.0,2138.0,0.0,-6.0,3.0
39.86528038978577,,,-58.0,-261.0,1865.0,2.0,-6.0,3.0
39.885662317276,,,124.0,-377.0,1794.0,2.0,-6.0,0.0
39.906145334243774,,,315.0,-452.0,1763.0,2.0,-6.0,-4.0
39.92657113075256,,,532.0,-423.0,1786.0,2.0,-5.0,-8.0
39.947004079818726,,,557.0,-371.0,1868.0,2.0,-5.0,-8.0
39.96751141548157,,,546.0,-314.0,1975.0,1.0,-4.0,-7.0
39.98800730705261,,,478.0,-209.0,2044.0,1.0,-3.0,-1.0
40.00864577293396,,,481.0,-165.0,2015.0,1.0,-2.0,1.0
40.029151916503906,,,573.0,-139.0,1893.0,1.0,-1.0,3.0
40.04965353012085,,,621.0,-162.0,1850.0,0.0,0.0,3.0
40.06998801231384,,,637.0,-191.0,1826.0,-1.0,0.0,2.0
40.09038472175598,,,618.0,-219.0,1821.0,-2.0,-1.0,0.0
40.11092567443848,,,607.0,-191.0,1807.0,-3.0,0.0,-2.0
40.13151454925537,,,589.0,-167.0,1830.0,-3.0,0.0,-3.0
40.15187740325928,,,470.0,-144.0,2001.0,-3.0,0.0,-3.0
40.172375202178955,,,369.0,-99.0,2118.0,-3.0,-1.0,-2.0
40.19290208816528,,,301.0,-43.0,2153.0,-3.0,0.0,0.0
40.21331214904785,,,325.0,143.0,2020.0,-2.0,2.0,1.0
40.23392844200134,,,362.0,216.0,1988.0,-1.0,3.0,0.0
40.25436806678772,,,360.0,263.0,1988.0,0.0,3.0,-1.0
40.27479267120361,,,247.0,252.0,2029.0,-2.0,2.0,0.0
40.29526996612549,,,169.0,211.0,2055.0,-3.0,2.0,2.0
40.31567597389221,,,35.0,45.0,2126.0,-3.0,1.0,5.0
40.332104206085205,,,8.0,-58.0,2188.0,-4.0,0.0,6.0
40.352704763412476,,,-7.0,-137.0,2230.0,-4.0,-2.0,7.0
40.37313103675842,,,-63.0,-285.0,2296.0,-4.0,-4.0,6.0
40.39349436759949,,,-94.0,-309.0,2270.0,-3.0,-4.0,7.0
40.41404438018799,,,-116.0,-349.0,2252.0,-3.0,-4.0,7.0
40.43454122543335,,,-84.0,-426.0,2240.0,-1.0,-3.0,8.0
40.45495963096619,,,-72.0,-410.0,2207.0,0.0,-2.0,8.0
40.475465297698975,,,-55.0,-364.0,2159.0,1.0,-1.0,9.0
40.49603247642517,,,0.0,-231.0,2008.0,3.0,2.0,11.0
40.5165901184082,,,24.0,-171.0,1938.0,4.0,4.0,13.0
40.53690695762634,,,36.0,-54.0,1860.0,5.0,6.0,15.0
40.55750823020935,,,19.0,-1.0,1858.0,4.0,7.0,16.0
40.57784366607666,,,11.0,34.0,1877.0,4.0,7.0,16.0
40.598403215408325,,,62.0,82.0,1842.0,4.0,7.0,16.0
40.619059324264526,,,97.0,117.0,1805.0,4.0,8.0,14.0
40.63929295539856,,,110.0,146.0,1825.0,3.0,8.0,13.0
40.65998673439026,,,57.0,79.0,2048.0,3.0,7.0,12.0
40.680355072021484,,,46.0,1.0,2237.0,3.0,6.0,12.0
40.70073103904724,,,60.0,-33.0,2360.0,2.0,5.0,13.0
40.721272230148315,,,107.0,190.0,2268.0,0.0,5.0,13.0
40.74171018600464,,,87.0,283.0,2211.0,0.0,4.0,12.0
40.76225423812866,,,59.0,282.0,2206.0,0.0,4.0,11.0
40.78285527229309,,,-20.0,86.0,2308.0,-1.0,1.0,12.0
40.80315542221069,,,-47.0,23.0,2275.0,-1.0,0.0,13.0
40.82370448112488,,,1.0,-75.0,2219.0,-1.0,0.0,12.0
40.84402108192444,,,39.0,-47.0,2184.0,-2.0,0.0,10.0
40.86469626426697,,,52.0,21.0,2123.0,-2.0,0.0,7.0
40.88502597808838,,,-83.0,108.0,2128.0,-1.0,-1.0,4.0
40.90559935569763,,,-226.0,73.0,2199.0,-1.0,0.0,6.0
40.92605972290039,,,-351.0,-5.0,2296.0,-1.0,0.0,9.0
40.94654965400696,,,-376.0,-16.0,2248.0,1.0,-1.0,13.0
40.96697425842285,,,-274.0,36.0,2136.0,1.0,0.0,12.0
40.98743963241577,,,-161.0,74.0,2078.0,1.0,0.0,10.0
41.007960081100464,,,-97.0,-9.0,2140.0,-1.0,0.0,7.0
41.0283727645874,,,-107.0,-66.0,2199.0,-1.0,0.0,6.0
41.04893684387207,,,-87.0,-67.0,2215.0,-1.0,-1.0,6.0
41.06939339637756,,,-79.0,-20.0,2194.0,-2.0,-1.0,4.0
41.08991193771362,,,-110.0,-4.0,2200.0,-3.0,-1.0,3.0
41.11028504371643,,,-176.0,55.0,2202.0,-3.0,-1.0,2.0
41.13085079193115,,,-170.0,67.0,2190.0,-3.0,-1.0,1.0
41.15141177177429,,,-166.0,55.0,2209.0,-3.0,-1.0,1.0
41.171727418899536,,,-248.0,-39.0,2350.0,-4.0,-3.0,1.0
41.19231915473938,,,-323.0,-64.0,2375.0,-4.0,-4.0,2.0
41.21282505989075,,,-361.0,-82.0,2355.0,-4.0,-4.0,3.0
41.23323178291321,,,-344.0,-88.0,2290.0,-4.0,-4.0,3.0
41.25369930267334,,,-305.0,-76.0,2226.0,-4.0,-4.0,2.0
41.27413320541382,,,-271.0,-89.0,2196.0,-4.0,-4.0,0.0
41.294612884521484,,,-260.0,-147.0,2205.0,-4.0,-4.0,-2.0
41.31518507003784,,,-297.0,-149.0,2210.0,-4.0,-4.0,-3.0
41.33560109138489,,,-362.0,-123.0,2191.0,-4.0,-3.0,-2.0
41.356070041656494,,,-480.0,-78.0,2144.0,-2.0,-2.0,-1.0
41.37654089927673,,,-491.0,-92.0,2143.0,-2.0,-1.0,0.0
41.39699840545654,,,-482.0,-163.0,2197.0,-1.0,-1.0,1.0
41.41339945793152,,,-481.0,-177.0,2200.0,-1.0,0.0,1.0
41.43376970291138,,,-476.0,-178.0,2203.0,-1.0,0.0,1.0
41.454415798187256,,,-523.0,-218.0,2241.0,0.0,0.0,3.0
41.47506809234619,,,-542.0,-229.0,2248.0,1.0,0.0,5.0
41.49543905258179,,,-520.0,-199.0,2182.0,1.0,0.0,6.0
41.51586651802063,,,-444.0,-165.0,2092.0,1.0,1.0,6.0
41.536290884017944,,,-207.0,-136.0,2008.0,2.0,3.0,3.0
41.556920289993286,,,-116.0,-156.0,2101.0,1.0,4.0,1.0
41.577248096466064,,,-132.0,-125.0,2145.0,1.0,3.0,0.0
41.59780812263489,,,-188.0,-74.0,2159.0,1.0,3.0,1.0
41.61824083328247,,,-290.0,-31.0,2190.0,1.0,3.0,2.0
41.638670206069946,,,-310.0,-40.0,2212.0,1.0,3.0,3.0
41.659231662750244,,,-300.0,-47.0,2233.0,2.0,3.0,4.0
41.67965340614319,,,-208.0,-50.0,2247.0,1.0,3.0,4.0
41.700138568878174,,,-158.0,-72.0,2282.0,1.0,3.0,3.0
41.72062420845032,,,-122.0,-93.0,2341.0,0.0,2.0,2.0
41.7411253452301,,,-136.0,-51.0,2386.0,0.0,1.0,0.0
41.76166296005249,,,-211.0,-6.0,2377.0,0.0,1.0,0.0
41.78623056411743,,,-387.0,26.0,2324.0,0.0,1.0,2.0
41.80658984184265,,,-407.0,11.0,2278.0,1.0,0.0,3.0
41.827096462249756,,,-371.0,-30.0,2238.0,2.0,1.0,4.0
41.8476288318634,,,-236.0,-89.0,2209.0,3.0,1.0,2.0
41.86803126335144,,,-217.0,-76.0,2216.0,3.0,1.0,1.0
41.88874006271362,,,-248.0,-56.0,2244.0,3.0,1.0,1.0
41.90904140472412,,,-283.0,-53.0,2308.0,4.0,2.0,3.0
41.92953872680664,,,-250.0,-20.0,2309.0,5.0,2.0,3.0
41.94995617866516,,,-165.0,76.0,2221.0,5.0,2.0,2.0
41.97039842605591,,,-128.0,87.0,2218.0,4.0,2.0,1.0
41.991037368774414,,,-99.0,89.0,2219.0,4.0,1.0,1.0
42.01156187057495,,,-33.0,90.0,2195.0,3.0,1.0,-1.0
42.03200626373291,,,-8.0,86.0,2211.0,3.0,0.0,-2.0
42.05240178108215,,,15.0,79.0,2234.0,3.0,0.0,-3.0
42.07280683517456,,,-60.0,78.0,2295.0,1.0,-2.0,-4.0
42.09338641166687,,,-135.0,69.0,2310.0,1.0,-2.0,-3.0
42.11394691467285,,,-176.0,69.0,2298.0,1.0,-3.0,-2.0
42.13019680976868,,,-77.0,79.0,2187.0,0.0,-3.0,-1.0
42.150702714920044,,,-3.0,51.0,2134.0,0.0,-4.0,-2.0
42.17121386528015,,,20.0,2.0,1989.0,-3.0,-3.0,-4.0
42.1916823387146,,,-19.0,-30.0,1954.0,-4.0,-2.0,-4.0
42.21209502220154,,,-47.0,-86.0,1977.0,-4.0,-2.0,-4.0
42.23254108428955,,,-104.0,-119.0,2022.0,-4.0,-1.0,-5.0
42.253153562545776,,,-133.0,-104.0,2046.0,-4.0,-1.0,-5.0
42.27355599403381,,,-170.0,-109.0,2084.0,-4.0,0.0,-5.0
42.294100284576416,,,-268.0,-174.0,2204.0,-4.0,-1.0,-4.0
42.31452393531799,,,-312.0,-198.0,2244.0,-4.0,-1.0,-2.0
42.33499360084534,,,-345.0,-179.0,2235.0,-3.0,0.0,0.0
42.3554105758667,,,-311.0,-154.0,2203.0,-2.0,1.0,1.0
42.376033544540405,,,-276.0,-154.0,2219.0,-2.0,1.0,1.0
42.39652609825134,,,-265.0,-151.0,2233.0,-2.0,0.0,0.0
42.41697669029236,,,-271.0,-131.0,2231.0,-1.0,0.0,0.0
42.43745493888855,,,-265.0,-107.0,2216.0,-1.0,0.0,1.0
42.457916498184204,,,-236.0,-80.0,2190.0,1.0,0.0,1.0
42.478264808654785,,,-177.0,-52.0,2183.0,1.0,0.0,1.0
42.49885654449463,,,-109.0,-19.0,2165.0,1.0,0.0,0.0
42.51931357383728,,,-26.0,21.0,2145.0,0.0,0.0,-3.0
42.53974437713623,,,-34.0,23.0,2195.0,0.0,0.0,-3.0
42.56036138534546,,,-75.0,18.0,2252.0,0.0,0.0,-3.0
42.58085632324219,,,-108.0,69.0,2253.0,0.0,0.0,-2.0
42.60132169723511,,,-61.0,101.0,2222.0,0.0,0.0,-2.0
42.62165451049805,,,-4.0,87.0,2217.0,0.0,-1.0,-3.0
42.64212226867676,,,33.0,-45.0,2292.0,-1.0,-2.0,-3.0
42.66274976730347,,,43.0,-113.0,2316.0,-2.0,-3.0,-4.0
42.68335318565369,,,126.0,-93.0,2217.0,-1.0,-3.0,-6.0
42.70383429527283,,,179.0,-19.0,2127.0,-1.0,-2.0,-9.0
42.724205017089844,,,197.0,45.0,2087.0,0.0,-1.0,-11.0
42.744548082351685,,,63.0,71.0,2214.0,-1.0,-1.0,-13.0
42.76514029502869,,,-47.0,86.0,2281.0,0.0,-1.0,-11.0
42.78551363945007,,,-135.0,166.0,2264.0,0.0,-1.0,-8.0
42.80603766441345,,,-185.0,378.0,2064.0,-1.0,1.0,-5.0
42.82643222808838,,,-199.0,410.0,2007.0,-1.0,1.0,-5.0
42.84713649749756,,,-201.0,345.0,2041.0,-1.0,0.0,-4.0
42.86755037307739,,,-74.0,67.0,2199.0,-1.0,-2.0,-3.0
42.887994050979614,,,13.0,-38.0,2231.0,-2.0,-3.0,-5.0
42.908493995666504,,,102.0,-124.0,2269.0,-3.0,-4.0,-7.0
42.92896246910095,,,199.0,-138.0,2268.0,-4.0,-4.0,-8.0
42.94937062263489,,,194.0,-67.0,2229.0,-4.0,-4.0,-8.0
42.96979069709778,,,149.0,-3.0,2182.0,-3.0,-5.0,-6.0
42.99035573005676,,,112.0,-51.0,2190.0,-4.0,-5.0,-4.0
43.01074767112732,,,66.0,-119.0,2176.0,-5.0,-5.0,-2.0
43.03143882751465,,,38.0,-234.0,2066.0,-5.0,-5.0,-1.0
43.05184626579285,,,43.0,-265.0,2011.0,-5.0,-5.0,-2.0
43.072415351867676,,,43.0,-302.0,2041.0,-4.0,-5.0,-3.0
43.0927197933197,,,29.0,-386.0,2252.0,-3.0,-5.0,-4.0
43.11330461502075,,,12.0,-350.0,2307.0,-3.0,-4.0,-3.0
