time,/ext_usb_camera/image/compressed,robogame/imu_state,robogame/imu_state.linear_acc.x,robogame/imu_state.linear_acc.y,robogame/imu_state.linear_acc.z,robogame/imu_state.gyro.z,robogame/imu_state.gyro.x,robogame/imu_state.gyro.y
0.0,,,135.0,-22.0,1109.0,-19.0,-1.0,-6.0
0.04494357109069824,,,454.0,-104.0,1213.0,-21.0,0.0,-10.0
0.09014558792114258,,,725.0,-239.0,1302.0,-25.0,-1.0,-8.0
0.1350996494293213,,,903.0,-118.0,1277.0,-25.0,-1.0,-8.0
0.18031024932861328,,,864.0,104.0,1353.0,-24.0,-5.0,-10.0
0.22539639472961426,,,706.0,239.0,1367.0,-24.0,-9.0,-18.0
0.2703831195831299,,,478.0,547.0,1619.0,-24.0,-12.0,-31.0
0.3153989315032959,,,288.0,715.0,1595.0,-26.0,-15.0,-49.0
0.3603403568267822,,,694.0,564.0,1475.0,-28.0,-12.0,-61.0
0.4054396152496338,,,1072.0,393.0,1680.0,-24.0,-9.0,-63.0
0.45055055618286133,,,1490.0,-288.0,1218.0,-16.0,-7.0,-34.0
0.49570703506469727,,,1123.0,-1147.0,624.0,-7.0,-9.0,5.0
0.5406668186187744,,,317.0,-1360.0,230.0,1.0,-13.0,20.0
0.5857532024383545,,,-487.0,-1215.0,433.0,11.0,-14.0,12.0
0.6309473514556885,,,-640.0,-425.0,1365.0,18.0,-4.0,-7.0
0.6717650890350342,,,-426.0,114.0,2552.0,14.0,1.0,-4.0
0.7167415618896484,,,98.0,-203.0,2504.0,9.0,1.0,0.0
0.7619054317474365,,,561.0,-624.0,1831.0,5.0,-5.0,3.0
0.8109745979309082,,,1035.0,-575.0,1296.0,5.0,-6.0,15.0
0.851837158203125,,,1039.0,-362.0,1265.0,5.0,0.0,37.0
0.9298276901245117,,,545.0,-445.0,1606.0,5.0,1.0,42.0
0.9747781753540039,,,742.0,258.0,1868.0,0.0,5.0,31.0
1.0199501514434814,,,744.0,26.0,1683.0,0.0,3.0,24.0
1.0649020671844482,,,489.0,215.0,1515.0,3.0,0.0,15.0
1.1100330352783203,,,330.0,467.0,1369.0,5.0,6.0,8.0
1.1550586223602295,,,416.0,620.0,1194.0,6.0,8.0,4.0
1.2001209259033203,,,527.0,734.0,1045.0,13.0,12.0,3.0
1.245112657546997,,,635.0,605.0,1195.0,16.0,3.0,13.0
1.2901620864868164,,,662.0,355.0,866.0,14.0,-1.0,22.0
1.3353338241577148,,,351.0,835.0,967.0,20.0,-6.0,29.0
1.3804185390472412,,,-217.0,1079.0,1092.0,23.0,-5.0,29.0
1.4255211353302002,,,-578.0,631.0,1339.0,26.0,0.0,13.0
1.4704062938690186,,,-397.0,-94.0,1288.0,13.0,-2.0,-10.0
1.5155308246612549,,,76.0,34.0,1105.0,4.0,-5.0,-15.0
1.56060791015625,,,231.0,601.0,1068.0,0.0,-7.0,-4.0
1.6055326461791992,,,373.0,912.0,1043.0,-4.0,-7.0,11.0
1.6505324840545654,,,278.0,848.0,929.0,-4.0,-3.0,17.0
1.6956226825714111,,,-34.0,557.0,1047.0,-4.0,-3.0,8.0
1.7407681941986084,,,-262.0,312.0,1146.0,-3.0,-5.0,-7.0
1.7858295440673828,,,-413.0,266.0,1417.0,-4.0,-6.0,-16.0
1.8310086727142334,,,-476.0,401.0,1785.0,-8.0,-7.0,-22.0
1.8758869171142578,,,-381.0,596.0,2348.0,-15.0,-8.0,-31.0
1.9209299087524414,,,253.0,379.0,2150.0,-25.0,-9.0,-40.0
1.9618728160858154,,,904.0,441.0,1654.0,-22.0,-14.0,-32.0
2.006903886795044,,,1020.0,630.0,1099.0,-20.0,-15.0,-20.0
2.0519702434539795,,,951.0,715.0,746.0,-16.0,-12.0,-9.0
2.0971643924713135,,,851.0,430.0,757.0,-10.0,-10.0,-19.0
2.1422502994537354,,,1259.0,9.0,868.0,-9.0,-8.0,-20.0
2.187281847000122,,,1653.0,-256.0,1126.0,5.0,-3.0,1.0
2.2323496341705322,,,1490.0,-232.0,1737.0,9.0,-3.0,21.0
2.2772960662841797,,,1204.0,-98.0,2120.0,8.0,-5.0,26.0
2.322347402572632,,,994.0,281.0,2169.0,9.0,-10.0,12.0
2.3714983463287354,,,1209.0,679.0,1946.0,16.0,-12.0,15.0
2.4124374389648438,,,1453.0,873.0,1841.0,24.0,-11.0,26.0
2.457542896270752,,,1349.0,1105.0,2026.0,36.0,-12.0,35.0
2.5025434494018555,,,971.0,881.0,1970.0,38.0,-14.0,42.0
2.547741651535034,,,707.0,833.0,1960.0,44.0,-15.0,36.0
2.5927233695983887,,,476.0,969.0,1915.0,47.0,-13.0,38.0
2.637697458267212,,,252.0,611.0,1805.0,43.0,-8.0,41.0
2.682680606842041,,,210.0,346.0,1741.0,40.0,-5.0,33.0
2.7278249263763428,,,215.0,116.0,1805.0,35.0,-1.0,25.0
2.772956371307373,,,263.0,281.0,2184.0,32.0,1.0,13.0
2.8180508613586426,,,332.0,622.0,2372.0,27.0,5.0,11.0
2.8630805015563965,,,747.0,1290.0,2563.0,32.0,1.0,16.0
2.9080662727355957,,,243.0,1665.0,2634.0,44.0,-1.0,37.0
2.9532158374786377,,,-303.0,1274.0,2517.0,54.0,-7.0,23.0
2.998222827911377,,,-822.0,1158.0,2464.0,54.0,-12.0,1.0
3.0432393550872803,,,-669.0,1179.0,2444.0,54.0,-16.0,-9.0
3.0881950855255127,,,-610.0,1419.0,1865.0,66.0,-15.0,2.0
3.133411407470703,,,-1240.0,1114.0,1713.0,68.0,-10.0,19.0
3.1825079917907715,,,-1715.0,69.0,1449.0,61.0,-6.0,7.0
3.223479747772217,,,-1262.0,-506.0,1215.0,48.0,-7.0,-18.0
3.2686827182769775,,,-1015.0,109.0,1250.0,47.0,3.0,-22.0
3.3135008811950684,,,-515.0,205.0,1615.0,43.0,7.0,-17.0
3.358569383621216,,,-529.0,467.0,1688.0,37.0,12.0,-6.0
3.4037163257598877,,,-632.0,108.0,1643.0,24.0,19.0,23.0
3.448596239089966,,,-309.0,-855.0,1637.0,13.0,12.0,22.0
3.4937052726745605,,,3.0,-1256.0,1378.0,-9.0,6.0,6.0
3.5388906002044678,,,242.0,-720.0,1475.0,-21.0,-2.0,-6.0
3.5839874744415283,,,297.0,365.0,2095.0,-20.0,-3.0,-9.0
3.6290030479431152,,,-234.0,1776.0,2356.0,-5.0,-5.0,2.0
3.6740775108337402,,,-297.0,1462.0,2786.0,-13.0,-1.0,36.0
3.718982696533203,,,-267.0,1285.0,2880.0,-5.0,-17.0,22.0
3.7640223503112793,,,-784.0,1107.0,1955.0,-8.0,-14.0,16.0
3.809054374694824,,,-673.0,1141.0,2019.0,-11.0,-20.0,2.0
3.8542139530181885,,,-286.0,1037.0,2218.0,-5.0,-24.0,-15.0
3.899278402328491,,,-98.0,1274.0,2472.0,-6.0,-29.0,-7.0
3.944352388381958,,,-171.0,1368.0,2506.0,-3.0,-26.0,14.0
3.989413022994995,,,97.0,1172.0,2401.0,-7.0,-32.0,16.0
4.03451681137085,,,246.0,971.0,2013.0,-9.0,-28.0,8.0
4.079578161239624,,,196.0,1158.0,2757.0,-9.0,-25.0,13.0
4.124484062194824,,,338.0,893.0,2356.0,-2.0,-16.0,21.0
4.169658422470093,,,-227.0,298.0,2693.0,1.0,-19.0,3.0
4.214538097381592,,,314.0,621.0,2451.0,-3.0,-16.0,4.0
4.259661436080933,,,71.0,695.0,2383.0,0.0,-15.0,22.0
4.3046653270721436,,,532.0,211.0,2833.0,-2.0,-16.0,12.0
4.349907398223877,,,152.0,158.0,3254.0,-1.0,-11.0,2.0
4.394859313964844,,,-248.0,75.0,3360.0,-5.0,-8.0,-11.0
4.439942359924316,,,-302.0,125.0,3003.0,-5.0,-12.0,-23.0
4.485121726989746,,,-76.0,705.0,2849.0,-10.0,-10.0,-3.0
4.5300281047821045,,,311.0,480.0,2902.0,-8.0,-6.0,10.0
4.575033187866211,,,-442.0,41.0,2978.0,-13.0,-8.0,-10.0
4.620221853256226,,,-295.0,437.0,3262.0,-20.0,-6.0,6.0
4.6652631759643555,,,-356.0,403.0,3004.0,-14.0,-8.0,4.0
4.710321426391602,,,-397.0,631.0,3045.0,-23.0,-10.0,17.0
4.755351305007935,,,-380.0,302.0,3191.0,-21.0,-14.0,-1.0
4.800272464752197,,,-463.0,387.0,3381.0,-28.0,-18.0,-8.0
4.845454454421997,,,-221.0,1242.0,3164.0,-16.0,-15.0,14.0
4.8903117179870605,,,-910.0,9.0,3404.0,-25.0,-14.0,-16.0
4.935498237609863,,,-918.0,1030.0,3389.0,-15.0,-12.0,-12.0
4.980623960494995,,,-370.0,546.0,3041.0,-14.0,-13.0,-7.0
5.038093566894531,,,-799.0,236.0,2853.0,-12.0,-9.0,-21.0
5.083080530166626,,,-614.0,334.0,3056.0,-10.0,-9.0,-16.0
5.128114223480225,,,-499.0,-376.0,2899.0,-11.0,-9.0,-16.0
5.173241853713989,,,-1162.0,-58.0,3421.0,-4.0,-6.0,-3.0
5.218252182006836,,,-849.0,-865.0,3238.0,-9.0,-7.0,-24.0
5.263250112533569,,,-1400.0,-1602.0,2341.0,-13.0,-2.0,-27.0
5.308245420455933,,,-1954.0,-2975.0,390.0,-48.0,14.0,-37.0
5.35337495803833,,,-2315.0,-2160.0,1573.0,-75.0,19.0,-48.0
5.398403882980347,,,-1014.0,-392.0,2193.0,-80.0,25.0,-24.0
5.443369626998901,,,82.0,2297.0,3229.0,-61.0,32.0,59.0
5.4884796142578125,,,928.0,2497.0,1660.0,-55.0,53.0,104.0
5.541638374328613,,,1303.0,2332.0,1660.0,-36.0,54.0,112.0
5.578649282455444,,,669.0,2346.0,1588.0,-10.0,64.0,105.0
5.623656988143921,,,1158.0,1371.0,1551.0,-7.0,63.0,97.0
5.668671369552612,,,152.0,503.0,2644.0,8.0,60.0,97.0
5.713736057281494,,,1572.0,297.0,2405.0,2.0,49.0,70.0
5.758796215057373,,,726.0,-742.0,1898.0,9.0,68.0,82.0
5.8039021492004395,,,2234.0,-36.0,2380.0,19.0,39.0,4.0
5.84879732131958,,,2117.0,321.0,4115.0,-8.0,7.0,12.0
5.89800763130188,,,2321.0,1183.0,3828.0,-15.0,-10.0,-9.0
5.939078092575073,,,1359.0,1577.0,2569.0,-11.0,-12.0,0.0
5.984148740768433,,,1285.0,2085.0,1469.0,-12.0,-19.0,3.0
6.029188871383667,,,1532.0,1781.0,301.0,-8.0,-9.0,6.0
6.074240446090698,,,1494.0,1766.0,263.0,11.0,-13.0,7.0
6.119317531585693,,,1561.0,1354.0,429.0,18.0,-5.0,18.0
6.164268970489502,,,1853.0,668.0,1308.0,17.0,-3.0,35.0
6.209427833557129,,,1986.0,246.0,1963.0,15.0,-4.0,16.0
6.254360914230347,,,1687.0,620.0,2154.0,7.0,-9.0,3.0
6.299478054046631,,,1262.0,1301.0,1719.0,6.0,-8.0,4.0
6.344622611999512,,,909.0,1669.0,1083.0,7.0,-7.0,14.0
6.3896379470825195,,,571.0,1864.0,809.0,10.0,-3.0,22.0
6.4349400997161865,,,466.0,1675.0,1110.0,13.0,2.0,28.0
6.479606628417969,,,608.0,1417.0,1425.0,12.0,5.0,32.0
6.52467942237854,,,857.0,1290.0,1614.0,5.0,1.0,35.0
6.569827079772949,,,846.0,1209.0,1547.0,-3.0,-3.0,26.0
6.61495304107666,,,540.0,1676.0,1240.0,-10.0,-6.0,21.0
6.659975290298462,,,211.0,2172.0,914.0,-8.0,-6.0,25.0
6.704985857009888,,,-233.0,2372.0,848.0,-5.0,-4.0,35.0
6.750106334686279,,,-276.0,2152.0,738.0,-2.0,-1.0,41.0
6.794978380203247,,,-524.0,1744.0,933.0,4.0,5.0,38.0
6.840136766433716,,,-606.0,995.0,1723.0,9.0,5.0,24.0
6.88508415222168,,,-246.0,466.0,2301.0,11.0,4.0,0.0
6.930176496505737,,,159.0,456.0,2455.0,14.0,0.0,-1.0
6.975277900695801,,,948.0,526.0,1896.0,10.0,-1.0,1.0
7.020336866378784,,,1007.0,1153.0,1614.0,7.0,-7.0,2.0
7.065391540527344,,,442.0,1515.0,1417.0,12.0,-13.0,23.0
7.110415458679199,,,58.0,1321.0,1326.0,18.0,-12.0,52.0
7.15538763999939,,,129.0,418.0,1562.0,19.0,-7.0,53.0
7.200535774230957,,,457.0,-138.0,1472.0,9.0,-3.0,22.0
7.258008003234863,,,575.0,85.0,1078.0,-3.0,-8.0,-2.0
7.302855968475342,,,-2.0,287.0,752.0,-2.0,-6.0,-9.0
7.347956895828247,,,-429.0,507.0,785.0,-5.0,-1.0,-7.0
7.393143653869629,,,-223.0,741.0,862.0,-9.0,-3.0,1.0
7.438089847564697,,,-36.0,535.0,856.0,-9.0,-1.0,-6.0
7.483142137527466,,,-117.0,169.0,1001.0,-13.0,-5.0,-25.0
7.528109788894653,,,-485.0,291.0,1028.0,-14.0,-5.0,-39.0
7.5732035636901855,,,-682.0,606.0,1103.0,-16.0,-3.0,-41.0
7.618266344070435,,,-730.0,996.0,1118.0,-12.0,-1.0,-38.0
7.6634509563446045,,,-956.0,928.0,1875.0,-3.0,-3.0,-40.0
7.708582401275635,,,-488.0,763.0,2307.0,-7.0,5.0,-46.0
7.753474950790405,,,332.0,1074.0,2542.0,-9.0,10.0,-33.0
7.798537015914917,,,1322.0,1410.0,2227.0,1.0,8.0,-11.0
7.843542098999023,,,1849.0,868.0,1557.0,3.0,0.0,10.0
7.888613939285278,,,1607.0,249.0,1450.0,8.0,4.0,1.0
7.937975168228149,,,1446.0,136.0,1873.0,2.0,-1.0,-15.0
7.978762149810791,,,1121.0,563.0,1692.0,-2.0,-2.0,-17.0
8.024002075195312,,,935.0,969.0,1443.0,-3.0,-4.0,-11.0
8.069197654724121,,,596.0,1004.0,1713.0,-2.0,-4.0,-11.0
8.113867998123169,,,351.0,1006.0,2058.0,-3.0,-3.0,-5.0
8.159047603607178,,,372.0,1280.0,2123.0,-1.0,-2.0,9.0
8.203945398330688,,,604.0,1414.0,1877.0,0.0,-5.0,23.0
8.2489492893219,,,620.0,1068.0,1278.0,0.0,-5.0,22.0
8.29415512084961,,,491.0,537.0,1069.0,0.0,-6.0,12.0
8.339187145233154,,,417.0,158.0,1342.0,7.0,5.0,5.0
8.384242534637451,,,886.0,-247.0,1372.0,0.0,7.0,-8.0
8.429384231567383,,,950.0,88.0,1029.0,-13.0,0.0,-23.0
8.474290370941162,,,22.0,482.0,1283.0,-14.0,5.0,-10.0
8.519357204437256,,,-740.0,-370.0,2053.0,-6.0,16.0,6.0
8.564576387405396,,,-187.0,-1556.0,2401.0,-4.0,25.0,-12.0
8.609483242034912,,,460.0,-1572.0,2108.0,-12.0,15.0,-32.0
8.670998334884644,,,729.0,-749.0,1639.0,-15.0,9.0,-28.0
8.716010570526123,,,370.0,-416.0,1148.0,0.0,15.0,-6.0
8.760971546173096,,,92.0,-1162.0,1360.0,-1.0,15.0,-5.0
8.806038618087769,,,94.0,-1345.0,1783.0,-7.0,13.0,-20.0
8.851109504699707,,,62.0,-1134.0,2372.0,-4.0,10.0,-22.0
8.896228790283203,,,391.0,-1031.0,2398.0,-8.0,11.0,-14.0
8.94135332107544,,,426.0,-1032.0,1887.0,-10.0,8.0,-17.0
8.986403703689575,,,249.0,-1224.0,1017.0,-17.0,10.0,-34.0
9.031404256820679,,,256.0,-783.0,726.0,-19.0,3.0,-41.0
9.076474666595459,,,139.0,-733.0,623.0,-13.0,4.0,-35.0
9.121546506881714,,,-206.0,-1128.0,919.0,-8.0,11.0,-34.0
9.166519403457642,,,-344.0,-1397.0,1107.0,-10.0,10.0,-50.0
9.211687803268433,,,-552.0,-1258.0,1202.0,-12.0,10.0,-67.0
9.25671911239624,,,-466.0,-726.0,1296.0,-16.0,9.0,-71.0
9.297714948654175,,,-94.0,-362.0,1273.0,-15.0,8.0,-54.0
9.342769861221313,,,3.0,-531.0,1476.0,-12.0,7.0,-37.0
9.387855768203735,,,-113.0,-981.0,1381.0,-13.0,4.0,-32.0
9.432890892028809,,,-344.0,-1407.0,1174.0,-13.0,-1.0,-40.0
9.47799038887024,,,-694.0,-1324.0,1272.0,-9.0,-2.0,-48.0
9.522955417633057,,,-536.0,-1627.0,1218.0,-12.0,-1.0,-48.0
9.56796908378601,,,-270.0,-1497.0,1347.0,-10.0,0.0,-46.0
9.612894773483276,,,-585.0,-1534.0,1563.0,-3.0,-1.0,-50.0
9.65799331665039,,,-256.0,-1681.0,1605.0,-12.0,-2.0,-48.0
9.703157663345337,,,207.0,-1744.0,1399.0,-13.0,-4.0,-33.0
9.748173952102661,,,166.0,-1973.0,1311.0,-8.0,-1.0,-22.0
9.793367862701416,,,199.0,-2334.0,1588.0,-11.0,2.0,-22.0
9.838206768035889,,,158.0,-2507.0,1710.0,-12.0,2.0,-15.0
9.883439064025879,,,121.0,-2420.0,1833.0,-17.0,0.0,-19.0
9.928444385528564,,,78.0,-2127.0,1855.0,-19.0,-3.0,-19.0
9.9734468460083,,,44.0,-1856.0,1866.0,-15.0,-1.0,-16.0
10.018633127212524,,,88.0,-2007.0,1961.0,-13.0,-1.0,-9.0
10.063687086105347,,,150.0,-2085.0,1870.0,-11.0,-2.0,-3.0
10.108618259429932,,,39.0,-2046.0,1675.0,-9.0,-4.0,1.0
10.153675556182861,,,-43.0,-1733.0,1683.0,-8.0,-2.0,4.0
10.19870924949646,,,-62.0,-1554.0,1651.0,-6.0,-1.0,12.0
10.243782758712769,,,-194.0,-1535.0,1651.0,-3.0,0.0,17.0
10.288859605789185,,,-548.0,-1430.0,1716.0,0.0,0.0,13.0
10.334005117416382,,,-795.0,-1329.0,1649.0,-1.0,0.0,8.0
10.379104137420654,,,-838.0,-1274.0,1622.0,4.0,-1.0,4.0
10.424079418182373,,,-972.0,-1194.0,1645.0,3.0,1.0,-2.0
10.469074010848999,,,-849.0,-1101.0,1639.0,5.0,1.0,-3.0
10.514116048812866,,,-757.0,-1205.0,1500.0,4.0,2.0,-5.0
10.559182405471802,,,-537.0,-1096.0,1514.0,2.0,0.0,-6.0
10.6042640209198,,,-405.0,-882.0,1480.0,2.0,1.0,-3.0
10.649188995361328,,,-537.0,-833.0,1609.0,2.0,3.0,0.0
10.694339036941528,,,-707.0,-956.0,1724.0,3.0,4.0,-3.0
10.739488124847412,,,-723.0,-1025.0,2079.0,0.0,1.0,-9.0
10.78446912765503,,,-641.0,-970.0,1962.0,-1.0,0.0,-11.0
10.829641103744507,,,-495.0,-870.0,1746.0,-1.0,-1.0,-5.0
10.87443995475769,,,-470.0,-782.0,1582.0,-1.0,1.0,-4.0
10.936013460159302,,,-568.0,-894.0,1724.0,-2.0,-1.0,-8.0
10.981201887130737,,,-413.0,-693.0,1613.0,-1.0,-2.0,-6.0
11.026162147521973,,,-533.0,-570.0,1526.0,-1.0,1.0,1.0
11.071153402328491,,,-709.0,-692.0,1638.0,1.0,1.0,-4.0
11.116132020950317,,,-767.0,-776.0,1689.0,-2.0,1.0,-11.0
11.161206483840942,,,-530.0,-647.0,1787.0,-2.0,1.0,-12.0
11.21865725517273,,,-327.0,-601.0,1789.0,-4.0,0.0,-8.0
11.263787984848022,,,-199.0,-388.0,1700.0,-2.0,2.0,-4.0
11.308781623840332,,,-253.0,-480.0,1775.0,-2.0,1.0,-2.0
11.353780508041382,,,-178.0,-523.0,1734.0,-3.0,1.0,-2.0
11.398916244506836,,,-139.0,-441.0,1606.0,-1.0,0.0,-2.0
11.443804502487183,,,-158.0,-382.0,1683.0,-1.0,0.0,1.0
11.505370140075684,,,-124.0,-343.0,1670.0,1.0,0.0,2.0
11.550329208374023,,,-89.0,-334.0,1781.0,1.0,-1.0,7.0
11.595401287078857,,,-177.0,-343.0,1791.0,2.0,-2.0,6.0
11.640437126159668,,,-213.0,-313.0,1641.0,3.0,-3.0,6.0
11.685503959655762,,,-173.0,-310.0,1529.0,4.0,-2.0,5.0
11.730507612228394,,,-151.0,-231.0,1524.0,5.0,-2.0,5.0
11.775604248046875,,,-200.0,-246.0,1619.0,5.0,-2.0,7.0
11.82066535949707,,,-350.0,-285.0,1692.0,6.0,-1.0,6.0
11.865844249725342,,,-381.0,-394.0,1767.0,4.0,0.0,0.0
11.91088080406189,,,-128.0,-338.0,1789.0,2.0,0.0,1.0
11.955957651138306,,,41.0,-324.0,1712.0,2.0,0.0,6.0
12.000873327255249,,,-9.0,-326.0,1703.0,1.0,2.0,7.0
12.160807847976685,,,-120.0,-339.0,1857.0,0.0,2.0,2.0
12.201812744140625,,,153.0,-216.0,1958.0,-2.0,0.0,7.0
12.246583223342896,,,66.0,-286.0,1871.0,-2.0,-1.0,8.0
12.283620119094849,,,-37.0,-330.0,1825.0,-1.0,-2.0,2.0
12.328514099121094,,,-47.0,-309.0,1889.0,-2.0,-3.0,-3.0
12.37790298461914,,,139.0,-224.0,1843.0,-2.0,-4.0,0.0
12.418767929077148,,,90.0,-273.0,1625.0,-1.0,-4.0,1.0
12.463762521743774,,,70.0,-180.0,1612.0,-1.0,-2.0,-4.0
12.508882284164429,,,43.0,-208.0,1714.0,-1.0,-2.0,-5.0
12.553842544555664,,,278.0,-118.0,1746.0,0.0,0.0,-1.0
12.598857879638672,,,211.0,-20.0,1764.0,0.0,1.0,2.0
12.64387845993042,,,146.0,-142.0,1767.0,-1.0,2.0,0.0
12.688897609710693,,,353.0,-174.0,1753.0,-1.0,1.0,0.0
12.734065055847168,,,476.0,-164.0,1686.0,-2.0,1.0,4.0
12.779138803482056,,,411.0,-131.0,1534.0,-1.0,1.0,6.0
12.82412052154541,,,209.0,-59.0,1594.0,0.0,2.0,4.0
12.869303464889526,,,173.0,-2.0,1670.0,-1.0,3.0,-2.0
12.91437292098999,,,408.0,121.0,1703.0,-1.0,3.0,1.0
12.959332704544067,,,548.0,184.0,1611.0,0.0,3.0,8.0
13.004380941390991,,,444.0,291.0,1574.0,2.0,5.0,12.0
13.049346685409546,,,296.0,254.0,1603.0,4.0,6.0,12.0
13.09450101852417,,,174.0,199.0,1653.0,8.0,7.0,12.0
13.139573335647583,,,-111.0,97.0,1727.0,10.0,9.0,10.0
13.184662580490112,,,-113.0,-105.0,1728.0,7.0,8.0,4.0
13.229824542999268,,,55.0,-115.0,1621.0,6.0,6.0,2.0
13.282938718795776,,,203.0,-17.0,1505.0,3.0,5.0,9.0
13.319749593734741,,,159.0,-7.0,1261.0,4.0,3.0,18.0
13.364941120147705,,,-182.0,-226.0,1251.0,6.0,3.0,20.0
13.409795045852661,,,-618.0,-546.0,1397.0,2.0,3.0,9.0
13.45496916770935,,,-786.0,-596.0,1524.0,-2.0,2.0,-6.0
13.500144720077515,,,-503.0,-573.0,1466.0,-5.0,2.0,-12.0
13.545248985290527,,,-338.0,-242.0,1501.0,-5.0,1.0,-6.0
13.590277671813965,,,-729.0,-264.0,1723.0,-2.0,4.0,-3.0
13.63519811630249,,,-981.0,-652.0,1773.0,-7.0,5.0,-15.0
13.680253505706787,,,-1106.0,-767.0,1463.0,-10.0,0.0,-31.0
13.725229978561401,,,-1245.0,-324.0,1214.0,-10.0,-3.0,-41.0
13.770277976989746,,,-1597.0,-151.0,1051.0,-7.0,-4.0,-45.0
13.815306425094604,,,-1637.0,-289.0,1159.0,-12.0,-3.0,-57.0
13.860384225845337,,,-1339.0,-288.0,1170.0,-16.0,-6.0,-74.0
13.905587196350098,,,-941.0,58.0,1079.0,-20.0,-6.0,-77.0
13.950700283050537,,,-516.0,269.0,1351.0,-24.0,-4.0,-67.0
13.995628833770752,,,-5.0,145.0,1720.0,-28.0,1.0,-52.0
14.0405752658844,,,351.0,-472.0,1887.0,-33.0,1.0,-41.0
14.085642337799072,,,817.0,-701.0,1705.0,-32.0,-1.0,-26.0
14.130793571472168,,,541.0,-269.0,1823.0,-18.0,0.0,-6.0
14.175843954086304,,,-71.0,-572.0,1797.0,-13.0,8.0,3.0
14.220798969268799,,,-603.0,-1191.0,1808.0,-11.0,6.0,-1.0
14.265873193740845,,,-1048.0,-1250.0,1702.0,-8.0,-3.0,-9.0
14.31111216545105,,,-1018.0,-668.0,1310.0,1.0,1.0,-16.0
14.35606575012207,,,-893.0,-509.0,1448.0,2.0,1.0,-23.0
14.401002168655396,,,-681.0,-561.0,1535.0,7.0,5.0,-22.0
14.44612455368042,,,-815.0,-706.0,1829.0,8.0,5.0,-17.0
14.503605127334595,,,-1029.0,-612.0,2125.0,8.0,6.0,-13.0
14.548576593399048,,,-1450.0,-712.0,2245.0,6.0,5.0,-14.0
14.593613386154175,,,-1418.0,-856.0,2116.0,0.0,5.0,-26.0
14.638723611831665,,,-1078.0,-965.0,1896.0,-4.0,1.0,-25.0
14.683702230453491,,,-754.0,-973.0,1729.0,-3.0,3.0,-14.0
14.728764772415161,,,-924.0,-1004.0,1835.0,-5.0,4.0,-7.0
14.773895025253296,,,-1151.0,-1176.0,1746.0,-4.0,4.0,-8.0
14.818975448608398,,,-1265.0,-1026.0,1812.0,-5.0,5.0,-9.0
14.8639976978302,,,-1372.0,-1062.0,1779.0,-4.0,7.0,-7.0
14.90909218788147,,,-1223.0,-1045.0,1857.0,-5.0,6.0,-11.0
14.953991651535034,,,-1008.0,-794.0,1834.0,-4.0,5.0,-7.0
14.999155044555664,,,-1098.0,-653.0,1449.0,-2.0,8.0,-4.0
15.044157981872559,,,-911.0,-512.0,1306.0,-5.0,11.0,-12.0
15.08911943435669,,,-625.0,-525.0,1537.0,-4.0,14.0,-9.0
15.134353637695312,,,-663.0,-588.0,1728.0,1.0,17.0,0.0
15.179332256317139,,,-1039.0,-343.0,1961.0,1.0,16.0,6.0
15.224491596221924,,,-1237.0,-582.0,1663.0,-3.0,17.0,-2.0
15.269452333450317,,,-919.0,-160.0,1542.0,2.0,14.0,-7.0
15.314531564712524,,,-1141.0,-6.0,1457.0,4.0,15.0,-6.0
15.359540224075317,,,-1260.0,-7.0,1493.0,7.0,12.0,-11.0
15.404586553573608,,,-1433.0,15.0,1419.0,9.0,8.0,-19.0
15.449555158615112,,,-1470.0,-99.0,989.0,6.0,5.0,-36.0
15.494685173034668,,,-890.0,8.0,887.0,7.0,5.0,-39.0
15.539753913879395,,,-887.0,-97.0,740.0,2.0,5.0,-36.0
15.5847647190094,,,-677.0,143.0,1078.0,6.0,8.0,-35.0
15.629907608032227,,,-992.0,352.0,1406.0,0.0,10.0,-35.0
15.674948453903198,,,-1289.0,35.0,1443.0,-10.0,13.0,-45.0
15.719914436340332,,,-957.0,-364.0,1527.0,-13.0,9.0,-40.0
15.764934301376343,,,-677.0,-297.0,1389.0,-12.0,9.0,-23.0
15.810065031051636,,,-921.0,-83.0,1279.0,-11.0,8.0,-9.0
15.859271049499512,,,-1558.0,177.0,1229.0,-10.0,9.0,-19.0
15.90013575553894,,,-2033.0,261.0,1453.0,-16.0,5.0,-41.0
15.945366382598877,,,-1931.0,187.0,1485.0,-16.0,-2.0,-53.0
15.990453243255615,,,-1556.0,214.0,1584.0,-18.0,-7.0,-51.0
16.03535270690918,,,-1143.0,113.0,1657.0,-19.0,-10.0,-45.0
16.08032202720642,,,-927.0,275.0,2107.0,-16.0,-9.0,-46.0
16.125545024871826,,,-998.0,132.0,2199.0,-17.0,-5.0,-49.0
16.170413732528687,,,-1255.0,-593.0,1917.0,-16.0,-2.0,-33.0
16.21556067466736,,,-1751.0,-936.0,1183.0,-10.0,-6.0,-5.0
16.26062321662903,,,-2163.0,-615.0,532.0,0.0,-12.0,10.0
16.30573058128357,,,-2444.0,-123.0,94.0,7.0,-12.0,6.0
16.350744247436523,,,-2642.0,167.0,259.0,10.0,-9.0,-1.0
16.39578080177307,,,-2619.0,381.0,885.0,15.0,-3.0,-13.0
16.44087266921997,,,-2275.0,359.0,1858.0,9.0,0.0,-15.0
16.485846996307373,,,-1791.0,-12.0,2211.0,4.0,-2.0,-2.0
16.530983448028564,,,-1504.0,-206.0,1838.0,2.0,-4.0,6.0
16.575989961624146,,,-1149.0,-208.0,1393.0,4.0,-3.0,7.0
16.62107825279236,,,-1034.0,-140.0,1214.0,7.0,3.0,10.0
16.666282653808594,,,-1142.0,-136.0,1516.0,6.0,7.0,17.0
16.711241245269775,,,-1263.0,-337.0,1915.0,-1.0,5.0,28.0
16.756158351898193,,,-1166.0,-561.0,1992.0,-5.0,2.0,34.0
16.801265001296997,,,-774.0,-657.0,1785.0,-9.0,-3.0,37.0
16.846285820007324,,,-241.0,-562.0,1507.0,-5.0,-2.0,40.0
16.891342639923096,,,-145.0,-417.0,1380.0,-3.0,0.0,38.0
16.936565399169922,,,-209.0,-563.0,1343.0,0.0,2.0,33.0
16.981456756591797,,,-194.0,-708.0,1441.0,2.0,0.0,31.0
17.034847736358643,,,-159.0,-734.0,1562.0,2.0,1.0,27.0
17.07163143157959,,,273.0,-383.0,2042.0,4.0,1.0,24.0
17.124982357025146,,,89.0,-373.0,1945.0,-1.0,-2.0,28.0
17.161579370498657,,,341.0,-312.0,1625.0,4.0,-3.0,34.0
17.206664085388184,,,118.0,-38.0,1231.0,8.0,-3.0,36.0
17.251930952072144,,,61.0,234.0,1129.0,17.0,4.0,29.0
17.29696226119995,,,-30.0,349.0,1285.0,19.0,4.0,21.0
17.358438968658447,,,-24.0,-20.0,1075.0,19.0,5.0,17.0
17.391075134277344,,,107.0,-133.0,812.0,21.0,4.0,23.0
17.432060956954956,,,120.0,-33.0,678.0,19.0,7.0,22.0
17.477092742919922,,,468.0,82.0,670.0,19.0,3.0,26.0
17.522295236587524,,,437.0,500.0,907.0,26.0,-1.0,33.0
17.56721830368042,,,26.0,536.0,1160.0,27.0,0.0,35.0
17.612210273742676,,,-672.0,298.0,1290.0,27.0,1.0,22.0
17.657493591308594,,,-1114.0,116.0,1417.0,18.0,-1.0,-4.0
17.702329635620117,,,-802.0,115.0,1528.0,3.0,-7.0,-17.0
17.747564554214478,,,-2.0,295.0,1450.0,-6.0,-7.0,-15.0
17.79251194000244,,,596.0,495.0,1479.0,-8.0,-5.0,-2.0
17.837668657302856,,,622.0,372.0,1231.0,-12.0,-4.0,5.0
17.8825626373291,,,456.0,213.0,1080.0,-16.0,-4.0,0.0
17.92765974998474,,,459.0,23.0,1103.0,-20.0,-8.0,-8.0
17.968552827835083,,,764.0,115.0,1191.0,-21.0,-12.0,-4.0
18.0135817527771,,,838.0,289.0,1190.0,-14.0,-7.0,10.0
18.058704614639282,,,496.0,3.0,1352.0,-9.0,-8.0,8.0
18.103919982910156,,,309.0,-225.0,1529.0,-12.0,-10.0,-9.0
18.148956298828125,,,481.0,-44.0,1886.0,-17.0,-17.0,-16.0
18.19384503364563,,,773.0,-227.0,1343.0,-20.0,-15.0,-13.0
18.2389714717865,,,950.0,-259.0,1290.0,-2.0,-13.0,-6.0
18.284013509750366,,,585.0,-917.0,884.0,2.0,-5.0,3.0
18.333210229873657,,,509.0,-1359.0,806.0,12.0,-8.0,17.0
18.41927409172058,,,19.0,-823.0,730.0,28.0,-3.0,14.0
18.452001094818115,,,-331.0,-461.0,1185.0,27.0,0.0,-2.0
18.497016668319702,,,-124.0,-604.0,1514.0,25.0,1.0,-15.0
18.5420343875885,,,500.0,-704.0,1590.0,26.0,2.0,0.0
18.587202787399292,,,493.0,-517.0,1659.0,25.0,3.0,20.0
18.632254362106323,,,135.0,-263.0,1822.0,23.0,2.0,17.0
18.677154064178467,,,161.0,-340.0,1676.0,21.0,1.0,14.0
18.7222318649292,,,280.0,-397.0,1486.0,20.0,0.0,19.0
18.767265558242798,,,462.0,-259.0,1371.0,19.0,1.0,24.0
18.81232762336731,,,576.0,-73.0,1257.0,13.0,2.0,23.0
18.85737657546997,,,828.0,208.0,1238.0,6.0,5.0,15.0
18.902578592300415,,,1247.0,651.0,1591.0,-2.0,6.0,8.0
18.947551488876343,,,1859.0,633.0,1403.0,-10.0,8.0,32.0
18.992610931396484,,,1732.0,557.0,1111.0,1.0,11.0,63.0
19.037670612335205,,,934.0,662.0,1487.0,6.0,12.0,68.0
19.078624963760376,,,56.0,302.0,1837.0,-3.0,11.0,38.0
19.123597860336304,,,134.0,-127.0,1941.0,-16.0,4.0,-7.0
19.168654203414917,,,1076.0,148.0,1773.0,-20.0,-3.0,-12.0
19.234370946884155,,,1860.0,356.0,1395.0,-16.0,-2.0,16.0
19.27517604827881,,,1882.0,324.0,1173.0,-15.0,-3.0,34.0
19.320164680480957,,,1736.0,359.0,1001.0,-10.0,-4.0,29.0
19.365209341049194,,,1376.0,437.0,805.0,-5.0,-5.0,13.0
19.41029644012451,,,1277.0,561.0,584.0,-1.0,-3.0,6.0
19.455402851104736,,,1239.0,554.0,547.0,4.0,-1.0,9.0
19.50064754486084,,,1041.0,518.0,821.0,9.0,2.0,7.0
19.545634984970093,,,776.0,372.0,1145.0,9.0,1.0,5.0
19.5906765460968,,,608.0,178.0,1277.0,7.0,-1.0,-1.0
19.635587215423584,,,679.0,77.0,1511.0,4.0,-9.0,0.0
19.680752754211426,,,790.0,312.0,1428.0,9.0,-11.0,2.0
19.725761651992798,,,494.0,263.0,1618.0,3.0,-15.0,2.0
19.78730869293213,,,636.0,492.0,1649.0,1.0,-12.0,1.0
19.832349061965942,,,680.0,306.0,1782.0,-3.0,-10.0,2.0
19.877254486083984,,,872.0,19.0,1660.0,-6.0,-10.0,3.0
19.922371864318848,,,990.0,-131.0,1283.0,-9.0,-12.0,4.0
19.967350959777832,,,802.0,41.0,1150.0,-7.0,-11.0,3.0
20.024739980697632,,,745.0,-26.0,1249.0,-10.0,-6.0,3.0
20.06985092163086,,,913.0,-156.0,1341.0,-10.0,-4.0,-1.0
20.131284952163696,,,1117.0,-139.0,1493.0,-13.0,-6.0,-9.0
20.17637324333191,,,1433.0,112.0,1507.0,-13.0,-4.0,-8.0
20.22147846221924,,,1601.0,339.0,1521.0,-11.0,-2.0,-2.0
20.266549587249756,,,1476.0,577.0,1802.0,-10.0,0.0,-1.0
20.327986478805542,,,1479.0,555.0,2044.0,-11.0,1.0,0.0
20.372894525527954,,,1699.0,234.0,1929.0,-12.0,-1.0,8.0
20.418170928955078,,,1647.0,96.0,1582.0,-7.0,-5.0,14.0
20.45882821083069,,,1341.0,222.0,1339.0,-1.0,-4.0,11.0
20.504085302352905,,,1095.0,160.0,1508.0,0.0,-3.0,6.0
20.54897928237915,,,1001.0,143.0,1572.0,3.0,-5.0,4.0
20.594047784805298,,,862.0,224.0,1719.0,5.0,-5.0,6.0
20.639127492904663,,,585.0,222.0,1799.0,6.0,-7.0,3.0
20.684239864349365,,,420.0,219.0,1708.0,7.0,-5.0,-2.0
20.729270696640015,,,423.0,151.0,1630.0,5.0,-6.0,-9.0
20.774182319641113,,,658.0,246.0,1612.0,5.0,-5.0,-5.0
20.8193416595459,,,451.0,207.0,1641.0,6.0,-3.0,1.0
20.864588975906372,,,333.0,46.0,1741.0,3.0,-1.0,-5.0
20.90959620475769,,,364.0,3.0,1809.0,-2.0,-2.0,-10.0
20.95453953742981,,,672.0,134.0,1611.0,-5.0,-1.0,-9.0
20.999552488327026,,,744.0,268.0,1423.0,-2.0,2.0,-7.0
21.044689178466797,,,577.0,195.0,1399.0,-3.0,4.0,-7.0
21.089712858200073,,,486.0,154.0,1574.0,0.0,7.0,-4.0
21.134862661361694,,,342.0,-13.0,1789.0,-1.0,6.0,-5.0
21.179962873458862,,,439.0,-181.0,1944.0,-4.0,5.0,-4.0
21.241217374801636,,,716.0,-91.0,1831.0,-6.0,4.0,0.0
21.27403211593628,,,770.0,-27.0,1814.0,-6.0,6.0,3.0
21.314952850341797,,,942.0,-127.0,1725.0,-7.0,7.0,4.0
21.3599112033844,,,1072.0,40.0,1884.0,-4.0,8.0,9.0
21.405102729797363,,,606.0,-116.0,1927.0,-3.0,7.0,9.0
21.450242042541504,,,340.0,-439.0,1567.0,-3.0,8.0,-2.0
21.495410442352295,,,253.0,-391.0,1433.0,-9.0,7.0,-8.0
21.54033136367798,,,794.0,96.0,1463.0,-14.0,6.0,-5.0
21.585607528686523,,,1128.0,398.0,1573.0,-8.0,8.0,12.0
21.63031578063965,,,766.0,274.0,1639.0,1.0,9.0,24.0
21.675405502319336,,,350.0,22.0,1476.0,4.0,7.0,26.0
21.73705744743347,,,-199.0,0.0,1568.0,9.0,8.0,25.0
21.781957149505615,,,-390.0,-189.0,1553.0,9.0,6.0,14.0
21.82702660560608,,,-260.0,-108.0,1368.0,10.0,2.0,2.0
21.872106790542603,,,23.0,176.0,1009.0,12.0,1.0,3.0
21.917027950286865,,,180.0,459.0,855.0,15.0,3.0,13.0
21.962093591690063,,,22.0,271.0,872.0,15.0,0.0,23.0
22.007169485092163,,,-381.0,102.0,967.0,19.0,-2.0,22.0
22.052091598510742,,,-863.0,54.0,1160.0,16.0,-6.0,9.0
22.097275972366333,,,-1016.0,210.0,1364.0,13.0,-3.0,-7.0
22.14236545562744,,,-801.0,248.0,1416.0,8.0,-1.0,-14.0
22.187448501586914,,,-492.0,76.0,1281.0,2.0,2.0,-17.0
22.23242712020874,,,-116.0,70.0,1049.0,-5.0,2.0,-19.0
22.277488946914673,,,-42.0,253.0,827.0,-6.0,1.0,-16.0
22.322489738464355,,,-178.0,399.0,837.0,-4.0,4.0,-14.0
22.367675304412842,,,-564.0,159.0,1025.0,-9.0,4.0,-20.0
22.412585020065308,,,-461.0,53.0,1246.0,-15.0,4.0,-31.0
22.457737684249878,,,-224.0,161.0,1536.0,-15.0,0.0,-31.0
22.50278115272522,,,0.0,163.0,1514.0,-20.0,1.0,-28.0
22.547871112823486,,,367.0,237.0,1533.0,-22.0,-1.0,-22.0
22.59298825263977,,,536.0,232.0,1277.0,-22.0,-3.0,-19.0
22.637911319732666,,,578.0,389.0,1111.0,-16.0,-2.0,-15.0
22.6829092502594,,,374.0,343.0,1068.0,-17.0,-4.0,-14.0
22.72797989845276,,,240.0,305.0,1166.0,-11.0,-4.0,-18.0
22.768941164016724,,,13.0,330.0,1688.0,-6.0,-7.0,-18.0
22.814122200012207,,,-185.0,10.0,1877.0,-6.0,-5.0,-19.0
22.85916566848755,,,17.0,-238.0,1811.0,-3.0,-5.0,-22.0
22.904233932495117,,,107.0,-388.0,1454.0,-1.0,-8.0,-16.0
22.949224710464478,,,333.0,-376.0,1175.0,2.0,-13.0,-1.0
22.994309425354004,,,70.0,98.0,889.0,18.0,-7.0,12.0
23.039219856262207,,,-879.0,-152.0,1126.0,22.0,-4.0,10.0
23.084341526031494,,,-1199.0,-720.0,991.0,22.0,-4.0,-9.0
23.129464387893677,,,-1240.0,-930.0,907.0,21.0,-8.0,-20.0
23.174384593963623,,,-1054.0,-804.0,982.0,17.0,-7.0,-13.0
23.21951413154602,,,-1021.0,-507.0,1345.0,16.0,0.0,-4.0
23.26467227935791,,,-1405.0,-461.0,1880.0,12.0,1.0,-10.0
23.309597730636597,,,-1276.0,-377.0,2103.0,3.0,0.0,-18.0
23.354833126068115,,,-699.0,-259.0,1917.0,-3.0,-2.0,-13.0
23.399773120880127,,,-282.0,-236.0,1656.0,-6.0,-2.0,-7.0
23.444825410842896,,,-179.0,-193.0,1596.0,-6.0,1.0,-2.0
23.48991847038269,,,-89.0,-218.0,1974.0,-5.0,3.0,5.0
23.53495717048645,,,235.0,-392.0,2244.0,-6.0,-1.0,18.0
23.580103158950806,,,404.0,-356.0,2216.0,-6.0,-7.0,32.0
23.625065803527832,,,183.0,-156.0,1986.0,-5.0,-11.0,40.0
23.6701922416687,,,-83.0,65.0,1885.0,-3.0,-11.0,36.0
23.715080976486206,,,-129.0,4.0,1797.0,-1.0,-11.0,24.0
23.760170936584473,,,270.0,-79.0,1597.0,-1.0,-14.0,20.0
23.8052179813385,,,695.0,110.0,1367.0,3.0,-12.0,28.0
23.85029935836792,,,492.0,234.0,1323.0,8.0,-11.0,33.0
23.895323038101196,,,429.0,163.0,1306.0,10.0,-7.0,27.0
23.94042205810547,,,461.0,206.0,1360.0,10.0,-8.0,26.0
23.98596453666687,,,399.0,405.0,1569.0,14.0,-5.0,26.0
24.0306339263916,,,428.0,399.0,1717.0,13.0,-1.0,26.0
24.075589895248413,,,601.0,320.0,1762.0,11.0,-3.0,24.0
24.120577335357666,,,791.0,529.0,1789.0,10.0,-3.0,27.0
24.16569209098816,,,1008.0,626.0,1618.0,10.0,0.0,30.0
24.210766553878784,,,1045.0,429.0,1545.0,8.0,-2.0,31.0
24.255799293518066,,,915.0,504.0,1554.0,11.0,-1.0,32.0
24.300822496414185,,,766.0,326.0,1709.0,9.0,2.0,26.0
24.345865488052368,,,920.0,143.0,1663.0,6.0,1.0,17.0
24.390947580337524,,,1086.0,132.0,1504.0,8.0,2.0,16.0
24.43604588508606,,,1012.0,100.0,1600.0,9.0,4.0,17.0
24.481203317642212,,,964.0,80.0,1848.0,9.0,6.0,12.0
24.526129484176636,,,582.0,294.0,2196.0,6.0,5.0,4.0
24.57111692428589,,,526.0,524.0,1949.0,3.0,6.0,0.0
24.616408109664917,,,560.0,878.0,1706.0,2.0,7.0,4.0
24.661354064941406,,,553.0,818.0,1386.0,0.0,4.0,8.0
24.70648956298828,,,690.0,743.0,1082.0,-5.0,2.0,10.0
24.751549243927002,,,781.0,929.0,977.0,-4.0,0.0,18.0
24.79659676551819,,,606.0,1011.0,903.0,-5.0,-1.0,22.0
24.841509103775024,,,480.0,1223.0,912.0,-3.0,0.0,21.0
24.886515140533447,,,301.0,1269.0,1067.0,-3.0,-1.0,21.0
24.931681394577026,,,571.0,1198.0,855.0,-8.0,0.0,17.0
24.97662878036499,,,761.0,1455.0,831.0,-5.0,-3.0,20.0
25.021822452545166,,,802.0,1624.0,817.0,-1.0,1.0,29.0
25.066942930221558,,,773.0,1522.0,952.0,0.0,1.0,36.0
25.11198401451111,,,746.0,1335.0,888.0,0.0,-3.0,35.0
25.1568865776062,,,502.0,1278.0,972.0,5.0,-5.0,29.0
25.20186686515808,,,321.0,1292.0,976.0,7.0,-4.0,22.0
25.24703860282898,,,308.0,1343.0,1064.0,13.0,-1.0,19.0
25.292004108428955,,,229.0,1162.0,1395.0,19.0,1.0,13.0
25.33710026741028,,,424.0,702.0,1505.0,16.0,1.0,-1.0
25.382294416427612,,,750.0,673.0,1249.0,14.0,1.0,-4.0
25.427324533462524,,,735.0,730.0,1089.0,13.0,-2.0,-2.0
25.47238826751709,,,459.0,754.0,933.0,14.0,-1.0,-1.0
25.51742124557495,,,203.0,653.0,1024.0,13.0,0.0,-5.0
25.562370777130127,,,281.0,555.0,1100.0,8.0,2.0,-13.0
25.619832515716553,,,591.0,657.0,1189.0,5.0,1.0,-13.0
25.664815425872803,,,793.0,641.0,1192.0,3.0,2.0,-9.0
25.70997405052185,,,954.0,678.0,1255.0,-1.0,-2.0,-3.0
25.759094953536987,,,813.0,692.0,1266.0,-5.0,-1.0,0.0
25.800031423568726,,,797.0,631.0,1372.0,-11.0,-2.0,-3.0
25.84506368637085,,,907.0,808.0,1313.0,-13.0,-3.0,-5.0
25.890214920043945,,,802.0,1061.0,1252.0,-11.0,-3.0,3.0
25.93517804145813,,,461.0,984.0,1181.0,-10.0,-1.0,10.0
25.980180263519287,,,120.0,771.0,1137.0,-10.0,-3.0,6.0
26.025275945663452,,,49.0,668.0,905.0,-6.0,-4.0,2.0
26.070345163345337,,,-201.0,597.0,889.0,-1.0,-6.0,-3.0
26.115293502807617,,,-302.0,601.0,897.0,2.0,-6.0,-2.0
26.16045594215393,,,-472.0,310.0,978.0,6.0,-6.0,-10.0
26.20539903640747,,,-531.0,269.0,1114.0,5.0,-6.0,-22.0
26.250507831573486,,,-382.0,322.0,1348.0,3.0,-6.0,-23.0
26.295562982559204,,,101.0,344.0,1245.0,-1.0,-4.0,-15.0
26.34061598777771,,,469.0,434.0,1188.0,5.0,-7.0,-4.0
26.385732889175415,,,224.0,184.0,1160.0,5.0,-4.0,0.0
26.430747270584106,,,136.0,-106.0,1265.0,2.0,0.0,-5.0
26.47568941116333,,,491.0,-184.0,1305.0,-2.0,0.0,-12.0
26.52094864845276,,,783.0,-123.0,1364.0,-2.0,-2.0,-12.0
26.565826892852783,,,745.0,-43.0,1633.0,-4.0,-4.0,-10.0
26.610854387283325,,,825.0,41.0,1870.0,-7.0,-4.0,-7.0
26.655973196029663,,,906.0,122.0,1902.0,-9.0,-7.0,-7.0
26.70106601715088,,,982.0,311.0,1747.0,-9.0,-10.0,-2.0
26.746177673339844,,,882.0,604.0,1723.0,-6.0,-8.0,7.0
26.791326761245728,,,645.0,633.0,1789.0,-6.0,-7.0,10.0
26.836185693740845,,,874.0,602.0,1577.0,-7.0,-7.0,14.0
26.88136649131775,,,826.0,618.0,1318.0,-1.0,-7.0,20.0
26.926236867904663,,,539.0,541.0,1252.0,0.0,-6.0,18.0
26.971298456192017,,,372.0,645.0,1418.0,3.0,-3.0,11.0
27.016435384750366,,,446.0,710.0,1644.0,4.0,-1.0,13.0
27.06564974784851,,,618.0,770.0,1806.0,5.0,-1.0,19.0
27.106622457504272,,,638.0,684.0,1716.0,1.0,-4.0,21.0
27.15173888206482,,,624.0,891.0,1484.0,-1.0,-6.0,20.0
27.19671130180359,,,476.0,1191.0,1302.0,0.0,-8.0,25.0
27.241774320602417,,,381.0,1339.0,1122.0,0.0,-5.0,29.0
27.28683304786682,,,275.0,1335.0,1036.0,3.0,-4.0,30.0
27.33181118965149,,,297.0,1146.0,961.0,4.0,-2.0,30.0
27.376888751983643,,,300.0,1042.0,969.0,4.0,1.0,26.0
27.421858310699463,,,245.0,1122.0,1079.0,2.0,3.0,20.0
27.467079401016235,,,141.0,1343.0,1288.0,0.0,7.0,23.0
27.528430700302124,,,-128.0,1070.0,1574.0,6.0,7.0,28.0
27.573373794555664,,,111.0,364.0,1402.0,5.0,10.0,21.0
27.618448734283447,,,128.0,345.0,1291.0,8.0,7.0,13.0
27.676069021224976,,,130.0,261.0,1237.0,15.0,11.0,9.0
27.720884799957275,,,343.0,157.0,1264.0,14.0,14.0,1.0
27.765955924987793,,,535.0,116.0,1358.0,17.0,12.0,0.0
27.81100296974182,,,751.0,84.0,1045.0,12.0,9.0,1.0
27.856092929840088,,,592.0,48.0,848.0,9.0,5.0,5.0
27.90109920501709,,,163.0,12.0,1114.0,8.0,2.0,8.0
27.946147441864014,,,-463.0,-433.0,1751.0,8.0,1.0,7.0
27.991236686706543,,,-611.0,-1043.0,2397.0,3.0,1.0,-11.0
28.036360025405884,,,-177.0,-929.0,2330.0,-8.0,0.0,-28.0
28.081479787826538,,,123.0,-489.0,1612.0,-16.0,-3.0,-35.0
28.126278400421143,,,-39.0,36.0,884.0,-18.0,-3.0,-39.0
28.171491384506226,,,-334.0,455.0,573.0,-19.0,-4.0,-35.0
28.216546535491943,,,-544.0,436.0,527.0,-16.0,-1.0,-28.0
28.261467695236206,,,-743.0,112.0,727.0,-14.0,4.0,-35.0
28.306604862213135,,,-755.0,-134.0,907.0,-16.0,4.0,-47.0
28.35176992416382,,,-621.0,-111.0,908.0,-16.0,2.0,-51.0
28.39677333831787,,,-631.0,31.0,918.0,-15.0,2.0,-46.0
28.44178581237793,,,-788.0,1.0,885.0,-13.0,3.0,-44.0
28.486825227737427,,,-884.0,-124.0,755.0,-14.0,1.0,-47.0
28.531749963760376,,,-847.0,24.0,682.0,-11.0,1.0,-47.0
28.576905965805054,,,-776.0,25.0,771.0,-9.0,1.0,-41.0
28.621925830841064,,,-648.0,-143.0,817.0,-7.0,1.0,-32.0
28.667275190353394,,,-848.0,-370.0,1123.0,2.0,2.0,-33.0
28.740904092788696,,,-235.0,-1462.0,2062.0,-20.0,2.0,-37.0
28.785949230194092,,,-61.0,-1504.0,1868.0,-18.0,3.0,-30.0
28.83085322380066,,,-374.0,-1529.0,1263.0,-15.0,1.0,-38.0
28.875898122787476,,,-566.0,-1207.0,831.0,-11.0,1.0,-55.0
28.920937299728394,,,-666.0,-813.0,674.0,-7.0,4.0,-59.0
28.966108798980713,,,-730.0,-922.0,822.0,0.0,9.0,-53.0
29.011072158813477,,,-1247.0,-1070.0,1342.0,4.0,9.0,-52.0
29.056168794631958,,,-1774.0,-1304.0,1424.0,1.0,8.0,-55.0
29.10124182701111,,,-1852.0,-1200.0,1445.0,-2.0,3.0,-59.0
29.146406173706055,,,-1648.0,-1161.0,1186.0,-2.0,3.0,-48.0
29.19143033027649,,,-1552.0,-1172.0,1081.0,1.0,4.0,-37.0
29.236351251602173,,,-1332.0,-1362.0,1012.0,-5.0,6.0,-31.0
29.29793429374695,,,-755.0,-1427.0,1152.0,-5.0,9.0,-21.0
29.342942237854004,,,-384.0,-1207.0,1579.0,-2.0,10.0,4.0
29.38796329498291,,,-368.0,-1142.0,1751.0,-3.0,13.0,37.0
29.433051109313965,,,-878.0,-1199.0,1566.0,-2.0,13.0,51.0
29.47813320159912,,,-1373.0,-1240.0,1483.0,-9.0,8.0,36.0
29.523199319839478,,,-1074.0,-1041.0,1556.0,-14.0,4.0,28.0
29.56812620162964,,,-944.0,-670.0,1978.0,-8.0,5.0,29.0
29.613256454467773,,,-957.0,-447.0,2464.0,-8.0,7.0,32.0
29.658246994018555,,,-1056.0,-992.0,2084.0,-7.0,5.0,14.0
29.703425407409668,,,-795.0,-1261.0,1505.0,-12.0,-2.0,-8.0
29.748395681381226,,,-489.0,-847.0,918.0,-6.0,-4.0,-15.0
29.79346466064453,,,-667.0,-419.0,700.0,-2.0,-1.0,-23.0
29.838422775268555,,,-759.0,-202.0,728.0,2.0,3.0,-40.0
29.883502960205078,,,-798.0,-201.0,841.0,-2.0,2.0,-55.0
29.928651571273804,,,-330.0,-443.0,761.0,-7.0,0.0,-53.0
29.97366738319397,,,-92.0,-529.0,1219.0,-2.0,-2.0,-27.0
30.01866865158081,,,-621.0,-951.0,1612.0,-2.0,0.0,-5.0
30.06374740600586,,,-935.0,-1181.0,1210.0,-5.0,-2.0,-3.0
30.10881757736206,,,-1426.0,-952.0,1161.0,-8.0,-4.0,-10.0
30.15381956100464,,,-1693.0,-864.0,1352.0,-4.0,2.0,-17.0
30.19499158859253,,,-1791.0,-1285.0,1592.0,-8.0,7.0,-28.0
30.23986506462097,,,-1530.0,-1566.0,1829.0,-10.0,5.0,-38.0
30.297162532806396,,,-1358.0,-1392.0,1775.0,-13.0,7.0,-44.0
30.334110975265503,,,-1034.0,-1423.0,1818.0,-22.0,7.0,-52.0
30.375056982040405,,,-245.0,-1742.0,1570.0,-27.0,7.0,-44.0
30.42009735107422,,,109.0,-1867.0,1363.0,-21.0,8.0,-27.0
30.465073823928833,,,-60.0,-1862.0,1309.0,-20.0,13.0,-7.0
30.51019787788391,,,-354.0,-1992.0,1476.0,-17.0,14.0,1.0
30.555241107940674,,,-892.0,-2048.0,1563.0,-16.0,13.0,-1.0
30.60024642944336,,,-943.0,-1890.0,1609.0,-10.0,16.0,-2.0
30.6453218460083,,,-1355.0,-1339.0,1919.0,-7.0,19.0,5.0
30.690372943878174,,,-1913.0,-877.0,2035.0,-4.0,18.0,2.0
30.735400199890137,,,-2272.0,-342.0,2275.0,0.0,13.0,-5.0
30.784862518310547,,,-2666.0,58.0,2295.0,0.0,11.0,-12.0
30.825726985931396,,,-2418.0,-310.0,1783.0,-5.0,8.0,-21.0
30.870739221572876,,,-1583.0,-397.0,920.0,-6.0,4.0,-20.0
30.915673971176147,,,-1204.0,46.0,403.0,2.0,-1.0,-7.0
30.960702896118164,,,-1344.0,482.0,320.0,3.0,1.0,2.0
31.005733966827393,,,-1761.0,748.0,329.0,8.0,2.0,-2.0
31.050790786743164,,,-2259.0,1115.0,572.0,12.0,2.0,-25.0
31.09601354598999,,,-2285.0,903.0,459.0,9.0,4.0,-42.0
31.140946865081787,,,-2040.0,638.0,293.0,12.0,5.0,-50.0
31.186057567596436,,,-1932.0,774.0,576.0,11.0,6.0,-52.0
31.231164932250977,,,-1969.0,836.0,939.0,5.0,7.0,-48.0
31.276078701019287,,,-1968.0,477.0,1147.0,-3.0,4.0,-45.0
31.32114315032959,,,-1676.0,359.0,1137.0,-8.0,2.0,-41.0
31.366279363632202,,,-1573.0,511.0,1057.0,-13.0,2.0,-42.0
31.41118097305298,,,-1571.0,209.0,1101.0,-20.0,-2.0,-45.0
31.456334829330444,,,-1546.0,-77.0,1011.0,-22.0,-6.0,-44.0
31.50140905380249,,,-1246.0,-114.0,1202.0,-19.0,-7.0,-41.0
31.546579122543335,,,-1004.0,32.0,1612.0,-15.0,-10.0,-33.0
31.59157705307007,,,-1072.0,451.0,2036.0,-16.0,-10.0,-34.0
31.636597156524658,,,-1028.0,851.0,2860.0,-21.0,-8.0,-45.0
31.706273555755615,,,-1528.0,344.0,2920.0,-26.0,-7.0,-36.0
31.74304437637329,,,-2143.0,-533.0,1673.0,-11.0,-2.0,-12.0
31.78822159767151,,,-2758.0,-8.0,191.0,-9.0,-6.0,21.0
31.833251237869263,,,-2893.0,1439.0,-463.0,3.0,-1.0,11.0
31.878381729125977,,,-2899.0,2206.0,-51.0,1.0,0.0,-34.0
31.923328161239624,,,-2536.0,1385.0,180.0,1.0,-1.0,-51.0
31.96826148033142,,,-2079.0,487.0,618.0,2.0,3.0,-37.0
32.0133101940155,,,-1801.0,296.0,1461.0,-2.0,11.0,-11.0
32.05849266052246,,,-1837.0,330.0,2168.0,-4.0,12.0,3.0
32.10358214378357,,,-2072.0,280.0,2221.0,-4.0,10.0,8.0
32.148595571517944,,,-1983.0,78.0,1862.0,-4.0,6.0,11.0
32.20175504684448,,,-1852.0,-139.0,1504.0,-6.0,4.0,18.0
32.23866009712219,,,-1561.0,-636.0,1467.0,-7.0,3.0,28.0
32.28368330001831,,,-1370.0,-824.0,1529.0,-3.0,0.0,42.0
32.32879304885864,,,-1378.0,-694.0,1548.0,-1.0,0.0,45.0
32.374083518981934,,,-1387.0,-584.0,1378.0,2.0,-3.0,39.0
32.4189190864563,,,-1318.0,-473.0,1187.0,2.0,-6.0,29.0
32.46387815475464,,,-1054.0,-496.0,1150.0,6.0,-4.0,25.0
32.509072065353394,,,-498.0,38.0,1810.0,12.0,1.0,28.0
32.554035902023315,,,-590.0,1236.0,2769.0,13.0,0.0,15.0
32.59903907775879,,,-758.0,1018.0,2742.0,3.0,0.0,-1.0
32.644211530685425,,,-469.0,214.0,2002.0,5.0,-4.0,3.0
32.685168981552124,,,-191.0,2.0,1250.0,10.0,-8.0,15.0
32.730149269104004,,,-150.0,-64.0,313.0,9.0,-9.0,28.0
32.775230884552,,,251.0,102.0,-126.0,14.0,-11.0,37.0
32.820236921310425,,,645.0,660.0,141.0,21.0,-8.0,42.0
32.86534380912781,,,394.0,1196.0,625.0,32.0,-2.0,44.0
32.91046333312988,,,-676.0,1431.0,1263.0,32.0,3.0,27.0
32.95547914505005,,,-1169.0,973.0,1669.0,18.0,-2.0,1.0
33.00051236152649,,,-779.0,535.0,1384.0,11.0,-8.0,-3.0
33.06208300590515,,,-11.0,432.0,1095.0,4.0,-5.0,3.0
33.1069450378418,,,443.0,342.0,811.0,4.0,-3.0,12.0
33.152459144592285,,,353.0,303.0,657.0,2.0,-1.0,10.0
33.19725298881531,,,117.0,331.0,906.0,-1.0,2.0,5.0
33.24215769767761,,,-89.0,453.0,1356.0,-2.0,2.0,-3.0
33.2871356010437,,,-177.0,108.0,1703.0,-10.0,1.0,-13.0
33.33227849006653,,,-54.0,-293.0,1738.0,-12.0,-2.0,-14.0
33.377585649490356,,,153.0,-273.0,1696.0,-19.0,0.0,-12.0
33.42246460914612,,,395.0,-386.0,1643.0,-20.0,-2.0,-11.0
33.46742534637451,,,336.0,-172.0,1559.0,-15.0,-5.0,-21.0
33.512381076812744,,,178.0,85.0,1575.0,-14.0,-5.0,-35.0
33.55752921104431,,,39.0,74.0,1370.0,-11.0,-8.0,-45.0
33.60264754295349,,,-84.0,69.0,1285.0,-4.0,-8.0,-47.0
33.647743225097656,,,-392.0,-35.0,1303.0,2.0,-8.0,-36.0
33.69271206855774,,,-842.0,419.0,1209.0,6.0,-9.0,-33.0
33.73773431777954,,,-1291.0,858.0,1114.0,-3.0,-13.0,-53.0
33.782814264297485,,,-717.0,326.0,1221.0,-6.0,-17.0,-61.0
33.8280508518219,,,-629.0,6.0,1284.0,-2.0,-7.0,-47.0
33.872949838638306,,,-816.0,-75.0,1996.0,-3.0,-8.0,-42.0
33.91805291175842,,,-1106.0,-328.0,2281.0,-9.0,-12.0,-45.0
33.96299648284912,,,-1042.0,-833.0,2107.0,-12.0,-12.0,-28.0
34.00803828239441,,,-964.0,-779.0,2089.0,-6.0,-12.0,0.0
34.05310869216919,,,-928.0,-335.0,2103.0,-1.0,-9.0,10.0
34.09818983078003,,,-973.0,216.0,2172.0,3.0,-9.0,8.0
34.14325928688049,,,-1069.0,293.0,2221.0,3.0,-11.0,6.0
34.18832874298096,,,-1049.0,-29.0,2127.0,6.0,-9.0,12.0
34.23336839675903,,,-976.0,206.0,2247.0,9.0,-5.0,17.0
34.27847075462341,,,-1073.0,143.0,2456.0,10.0,-6.0,10.0
34.32340383529663,,,-1344.0,0.0,2504.0,7.0,-5.0,2.0
34.36838436126709,,,-1232.0,-64.0,2496.0,8.0,-7.0,-1.0
34.41353178024292,,,-957.0,19.0,2439.0,14.0,-6.0,-1.0
34.45869588851929,,,-828.0,658.0,2712.0,13.0,-5.0,0.0
34.503780126571655,,,-444.0,1365.0,3256.0,15.0,-5.0,-10.0
34.5487642288208,,,-168.0,1923.0,3174.0,10.0,-12.0,-19.0
34.593929052352905,,,48.0,2072.0,2877.0,12.0,-20.0,-22.0
34.63888907432556,,,512.0,1999.0,2662.0,17.0,-27.0,-34.0
34.68388032913208,,,947.0,1954.0,2641.0,23.0,-33.0,-36.0
34.72882270812988,,,1040.0,1785.0,2517.0,31.0,-39.0,-37.0
34.7739942073822,,,1480.0,2036.0,2515.0,36.0,-40.0,-29.0
34.81905269622803,,,1272.0,2003.0,2267.0,39.0,-40.0,-27.0
34.86427664756775,,,1591.0,2187.0,1808.0,46.0,-37.0,-16.0
34.90928077697754,,,1158.0,2706.0,1543.0,49.0,-31.0,-23.0
34.95421600341797,,,1030.0,2823.0,1542.0,45.0,-22.0,-42.0
35.011637449264526,,,689.0,2269.0,1918.0,39.0,-16.0,-38.0
35.05658793449402,,,734.0,1914.0,2131.0,37.0,-10.0,-6.0
35.101659536361694,,,496.0,2066.0,2043.0,40.0,-2.0,9.0
35.14683270454407,,,-277.0,2603.0,1608.0,31.0,-2.0,-6.0
35.19191884994507,,,-180.0,2412.0,1917.0,20.0,3.0,-16.0
35.23697090148926,,,-224.0,1957.0,2144.0,17.0,4.0,-13.0
35.281816720962524,,,-187.0,1773.0,2215.0,10.0,6.0,-1.0
35.326894760131836,,,-425.0,1921.0,2451.0,5.0,3.0,0.0
35.371978998184204,,,-337.0,1462.0,2809.0,1.0,2.0,12.0
35.416990518569946,,,-260.0,1851.0,2373.0,-4.0,6.0,15.0
35.46210193634033,,,-787.0,1792.0,2180.0,-12.0,4.0,-4.0
35.52756643295288,,,541.0,255.0,4300.0,-9.0,3.0,32.0
35.56866955757141,,,1296.0,120.0,3361.0,6.0,5.0,66.0
35.61367154121399,,,459.0,552.0,2776.0,1.0,0.0,27.0
35.65882849693298,,,-13.0,825.0,2928.0,2.0,-6.0,-7.0
35.70382332801819,,,566.0,102.0,3558.0,14.0,-11.0,-2.0
35.74894881248474,,,817.0,469.0,2941.0,6.0,0.0,47.0
35.7939612865448,,,54.0,637.0,2677.0,-10.0,-1.0,29.0
35.84294509887695,,,30.0,172.0,2477.0,9.0,-2.0,20.0
35.88394069671631,,,60.0,531.0,2638.0,-4.0,6.0,5.0
35.92908263206482,,,549.0,-441.0,3552.0,8.0,-3.0,23.0
35.97409701347351,,,250.0,-68.0,3161.0,10.0,5.0,26.0
36.01918983459473,,,362.0,61.0,3644.0,9.0,5.0,6.0
36.064292907714844,,,536.0,-610.0,3048.0,18.0,7.0,12.0
36.109461307525635,,,530.0,-361.0,3032.0,23.0,5.0,11.0
36.15428018569946,,,197.0,-76.0,3070.0,16.0,1.0,5.0
36.19932270050049,,,510.0,-194.0,3206.0,20.0,6.0,9.0
36.2444806098938,,,596.0,100.0,3458.0,8.0,8.0,2.0
36.289422035217285,,,692.0,-367.0,2994.0,11.0,0.0,10.0
36.33451724052429,,,270.0,-283.0,3085.0,6.0,-2.0,-3.0
36.37956762313843,,,1178.0,-368.0,3351.0,6.0,2.0,24.0
36.42469143867493,,,1034.0,-311.0,2913.0,6.0,3.0,18.0
36.465614318847656,,,526.0,-118.0,3036.0,2.0,-5.0,-3.0
36.5106885433197,,,805.0,-116.0,2929.0,-1.0,-1.0,4.0
36.555792808532715,,,1196.0,-358.0,2951.0,1.0,5.0,8.0
36.60079216957092,,,494.0,-180.0,2941.0,-4.0,5.0,3.0
36.64598536491394,,,862.0,-478.0,3183.0,-5.0,2.0,2.0
36.69082593917847,,,541.0,-726.0,2773.0,4.0,4.0,13.0
36.73605227470398,,,395.0,-259.0,3406.0,-12.0,11.0,14.0
36.7811005115509,,,261.0,-664.0,3008.0,-4.0,10.0,-4.0
36.82616353034973,,,-221.0,-370.0,3568.0,-15.0,3.0,-1.0
36.87122201919556,,,359.0,-1022.0,3358.0,-5.0,8.0,8.0
36.91620588302612,,,-282.0,-663.0,3387.0,-6.0,4.0,-5.0
36.961241006851196,,,-200.0,-690.0,2976.0,-8.0,9.0,-10.0
37.00630235671997,,,-25.0,-721.0,3249.0,-9.0,4.0,-22.0
37.051241397857666,,,418.0,-952.0,2935.0,-6.0,9.0,1.0
37.0965142250061,,,690.0,-651.0,3323.0,-7.0,9.0,-2.0
37.14154624938965,,,342.0,-440.0,3017.0,-4.0,2.0,-2.0
37.18657040596008,,,1113.0,-566.0,2715.0,-6.0,10.0,22.0
37.231507778167725,,,614.0,-265.0,2453.0,-4.0,2.0,19.0
37.27652955055237,,,1011.0,-134.0,2217.0,-9.0,9.0,20.0
37.32157754898071,,,756.0,-132.0,2515.0,-12.0,6.0,18.0
37.391390800476074,,,982.0,-241.0,2765.0,-10.0,10.0,24.0
37.42814373970032,,,1013.0,-229.0,2703.0,-8.0,9.0,20.0
37.47322702407837,,,897.0,192.0,2654.0,-7.0,11.0,15.0
37.543060541152954,,,951.0,187.0,2667.0,-1.0,13.0,6.0
37.57984948158264,,,744.0,184.0,3054.0,-2.0,9.0,-4.0
37.620765924453735,,,1022.0,3.0,3116.0,5.0,7.0,-1.0
37.66580104827881,,,534.0,-236.0,2769.0,11.0,11.0,2.0
37.710925340652466,,,-27.0,-245.0,3002.0,16.0,8.0,-16.0
37.75585699081421,,,-34.0,-494.0,3313.0,13.0,2.0,-18.0
37.80084800720215,,,554.0,-438.0,3436.0,19.0,-1.0,-1.0
37.84589695930481,,,451.0,-25.0,3169.0,23.0,1.0,13.0
37.890984773635864,,,-326.0,92.0,2980.0,25.0,0.0,-5.0
37.94829988479614,,,-344.0,24.0,3171.0,32.0,-5.0,-23.0
37.981086015701294,,,-61.0,-34.0,3048.0,39.0,-7.0,-21.0
38.03020119667053,,,-140.0,190.0,2555.0,42.0,0.0,1.0
38.07125115394592,,,-458.0,336.0,2451.0,47.0,1.0,-2.0
38.11625599861145,,,-1902.0,842.0,1890.0,27.0,5.0,8.0
38.16123390197754,,,-1745.0,595.0,2610.0,17.0,6.0,12.0
38.20645713806152,,,-460.0,291.0,3275.0,15.0,15.0,41.0
38.25135254859924,,,169.0,-321.0,2517.0,14.0,18.0,64.0
38.30068850517273,,,443.0,-600.0,1827.0,12.0,21.0,60.0
38.34168481826782,,,674.0,-629.0,1967.0,4.0,26.0,44.0
38.38666844367981,,,1551.0,-1092.0,2366.0,1.0,28.0,45.0
38.464489459991455,,,2237.0,-1562.0,2194.0,8.0,26.0,56.0
38.50137495994568,,,2707.0,-785.0,2269.0,12.0,24.0,74.0
38.5381383895874,,,2488.0,-541.0,1796.0,3.0,31.0,89.0
38.583202600479126,,,2894.0,-575.0,1983.0,10.0,27.0,80.0
38.62831687927246,,,2259.0,-616.0,2696.0,0.0,30.0,81.0
38.67334842681885,,,3421.0,-871.0,2659.0,10.0,21.0,65.0
38.71827268600464,,,3338.0,-650.0,2977.0,2.0,12.0,87.0
38.7634859085083,,,3975.0,-266.0,2176.0,9.0,4.0,82.0
38.80842900276184,,,3325.0,155.0,2211.0,7.0,-1.0,82.0
38.853509187698364,,,3520.0,584.0,1817.0,12.0,-9.0,63.0
38.898627281188965,,,2893.0,1306.0,1256.0,17.0,3.0,62.0
38.943719148635864,,,2825.0,1483.0,824.0,14.0,4.0,67.0
38.98869848251343,,,2735.0,1679.0,551.0,16.0,11.0,67.0
39.03364181518555,,,2880.0,1592.0,623.0,21.0,6.0,77.0
39.07876992225647,,,2538.0,1485.0,998.0,22.0,7.0,84.0
39.12394833564758,,,2420.0,782.0,1331.0,17.0,3.0,70.0
39.168824195861816,,,2114.0,593.0,1671.0,14.0,0.0,49.0
39.21385955810547,,,1820.0,651.0,2002.0,18.0,-3.0,23.0
39.25907802581787,,,1708.0,647.0,2069.0,23.0,-1.0,16.0
39.30413603782654,,,1955.0,292.0,1858.0,25.0,0.0,9.0
39.349265575408936,,,2480.0,531.0,1622.0,21.0,-5.0,4.0
39.39425849914551,,,2675.0,1180.0,1662.0,28.0,-7.0,20.0
39.43918490409851,,,2683.0,1067.0,1716.0,26.0,-9.0,37.0
39.484452962875366,,,2459.0,1136.0,1517.0,25.0,-13.0,56.0
39.52933645248413,,,1749.0,537.0,1455.0,28.0,-16.0,63.0
39.5743613243103,,,1406.0,-115.0,1369.0,26.0,-12.0,44.0
39.61955380439758,,,1185.0,-113.0,1030.0,19.0,-9.0,18.0
39.664849042892456,,,712.0,260.0,772.0,24.0,-2.0,3.0
39.709606409072876,,,693.0,443.0,1330.0,15.0,-2.0,-6.0
39.754637002944946,,,1242.0,989.0,1514.0,7.0,-6.0,-3.0
39.799582958221436,,,1321.0,844.0,1142.0,2.0,-4.0,20.0
39.84461259841919,,,829.0,524.0,912.0,-3.0,-2.0,19.0
39.88973259925842,,,502.0,182.0,942.0,-10.0,-3.0,-3.0
39.93476343154907,,,366.0,269.0,977.0,-12.0,0.0,-22.0
39.97982954978943,,,507.0,570.0,1102.0,-11.0,4.0,-29.0
40.02516722679138,,,521.0,836.0,1642.0,-9.0,0.0,-30.0
40.06605577468872,,,814.0,656.0,2106.0,-14.0,-4.0,-37.0
40.11094069480896,,,1141.0,921.0,2223.0,-23.0,2.0,-42.0
40.156142473220825,,,1414.0,1481.0,2154.0,-16.0,7.0,-31.0
40.20117545127869,,,1919.0,1207.0,1620.0,-14.0,6.0,-17.0
40.246026039123535,,,2106.0,879.0,1273.0,-11.0,2.0,-11.0
40.29100966453552,,,2149.0,464.0,1241.0,-4.0,2.0,-12.0
40.33612394332886,,,2349.0,415.0,1359.0,-2.0,8.0,-13.0
40.381202697753906,,,2371.0,537.0,1700.0,-1.0,8.0,-13.0
40.4306743144989,,,2109.0,628.0,2050.0,-1.0,4.0,-17.0
40.471421003341675,,,1970.0,809.0,1871.0,-4.0,2.0,-16.0
40.51637887954712,,,1916.0,1046.0,1617.0,-2.0,-1.0,-9.0
40.56147623062134,,,1796.0,930.0,1563.0,2.0,-2.0,-2.0
40.60650682449341,,,1543.0,834.0,1894.0,2.0,-2.0,0.0
40.65575623512268,,,1399.0,785.0,2055.0,0.0,-4.0,2.0
40.69673681259155,,,1387.0,930.0,1832.0,-3.0,-4.0,3.0
40.74181628227234,,,1329.0,1303.0,1441.0,-2.0,-6.0,9.0
40.78686785697937,,,1131.0,1624.0,1122.0,2.0,-1.0,22.0
40.83189034461975,,,931.0,1579.0,1185.0,5.0,1.0,32.0
40.87689924240112,,,869.0,1483.0,1362.0,9.0,4.0,36.0
40.92199516296387,,,884.0,1339.0,1588.0,10.0,6.0,44.0
40.96696329116821,,,834.0,1043.0,1625.0,9.0,6.0,41.0
41.01212453842163,,,523.0,955.0,1837.0,12.0,5.0,34.0
41.05721163749695,,,202.0,810.0,1851.0,16.0,6.0,32.0
41.102179288864136,,,22.0,470.0,1874.0,23.0,5.0,34.0
41.14726495742798,,,112.0,66.0,2015.0,20.0,3.0,26.0
41.19234323501587,,,86.0,303.0,2001.0,21.0,2.0,18.0
41.2454571723938,,,247.0,606.0,1469.0,20.0,2.0,18.0
41.28232383728027,,,293.0,1236.0,584.0,13.0,1.0,30.0
41.32736873626709,,,-546.0,1662.0,648.0,19.0,-7.0,52.0
41.37243986129761,,,-1083.0,1360.0,1211.0,13.0,-12.0,73.0
41.417529344558716,,,-1141.0,820.0,1231.0,15.0,-10.0,87.0
41.46265387535095,,,-951.0,60.0,1118.0,20.0,-15.0,76.0
41.50772285461426,,,-433.0,-583.0,998.0,13.0,-10.0,46.0
41.55266547203064,,,-335.0,-301.0,844.0,7.0,-6.0,14.0
41.59798455238342,,,-705.0,555.0,835.0,3.0,-9.0,9.0
41.64282464981079,,,-803.0,1102.0,467.0,3.0,-2.0,23.0
41.687851905822754,,,-1009.0,1127.0,514.0,0.0,0.0,31.0
41.732845306396484,,,-1173.0,914.0,493.0,1.0,1.0,33.0
41.7779016494751,,,-946.0,518.0,800.0,-1.0,2.0,23.0
41.82303810119629,,,-757.0,515.0,888.0,-2.0,2.0,9.0
41.86809229850769,,,-736.0,658.0,881.0,-5.0,-2.0,6.0
41.913214921951294,,,-996.0,642.0,992.0,-4.0,-5.0,5.0
41.95817518234253,,,-1127.0,562.0,1032.0,-5.0,-6.0,-2.0
42.00328993797302,,,-1370.0,598.0,1114.0,-8.0,-11.0,-12.0
42.048320055007935,,,-1540.0,995.0,1059.0,-10.0,-17.0,-14.0
42.09334921836853,,,-1546.0,1066.0,1459.0,-3.0,-22.0,-9.0
42.14258050918579,,,-853.0,1321.0,1763.0,-8.0,-17.0,-11.0
42.183598279953,,,-514.0,2006.0,1734.0,-11.0,-12.0,-6.0
42.2286331653595,,,-326.0,2643.0,1489.0,-3.0,-12.0,13.0
42.27354717254639,,,66.0,2517.0,1495.0,7.0,-7.0,34.0
42.31862425804138,,,490.0,2185.0,1077.0,11.0,-5.0,53.0
42.363670110702515,,,1199.0,1373.0,1315.0,12.0,-2.0,37.0
42.40882158279419,,,1409.0,1202.0,2145.0,1.0,-8.0,-12.0
42.453752756118774,,,578.0,1539.0,2250.0,-5.0,-8.0,-15.0
42.49893546104431,,,262.0,2006.0,1784.0,-8.0,-5.0,6.0
42.543996810913086,,,252.0,1735.0,1608.0,-15.0,-5.0,-1.0
42.58904027938843,,,-53.0,1405.0,1344.0,-16.0,-4.0,-22.0
42.633949518203735,,,-483.0,1578.0,1085.0,-15.0,2.0,-24.0
42.67902088165283,,,-492.0,1829.0,963.0,-14.0,7.0,-13.0
42.724019289016724,,,-297.0,1862.0,924.0,-14.0,10.0,-7.0
42.76908564567566,,,-184.0,1860.0,1001.0,-9.0,8.0,-6.0
42.814269065856934,,,-282.0,1620.0,1057.0,-4.0,11.0,-7.0
42.85941028594971,,,-237.0,1506.0,1090.0,-3.0,13.0,-5.0
42.90451431274414,,,-599.0,1196.0,1309.0,5.0,16.0,3.0
42.94934701919556,,,-434.0,538.0,1565.0,15.0,20.0,7.0
42.99457001686096,,,-10.0,306.0,1957.0,11.0,17.0,3.0
43.039408445358276,,,290.0,137.0,2118.0,11.0,6.0,11.0
43.08449673652649,,,494.0,-551.0,2161.0,12.0,-1.0,19.0
43.12954521179199,,,650.0,-1640.0,2240.0,12.0,-4.0,-2.0
43.17469644546509,,,624.0,-1680.0,1904.0,4.0,-3.0,-39.0
43.21967816352844,,,112.0,-998.0,1269.0,-5.0,-6.0,-54.0
43.26502442359924,,,-413.0,-399.0,730.0,-4.0,-6.0,-40.0
43.30989646911621,,,-607.0,-657.0,760.0,-6.0,-6.0,-31.0
43.35490036010742,,,-561.0,-897.0,1036.0,-11.0,-4.0,-37.0
43.399879932403564,,,-342.0,-798.0,1446.0,-16.0,-1.0,-46.0
43.44511437416077,,,81.0,-298.0,1498.0,-19.0,-1.0,-48.0
43.49010396003723,,,123.0,-68.0,1309.0,-22.0,-6.0,-43.0
43.53511881828308,,,-47.0,75.0,1555.0,-21.0,-6.0,-33.0
43.580291748046875,,,284.0,149.0,1841.0,-21.0,0.0,-26.0
43.625296115875244,,,637.0,228.0,1905.0,-21.0,1.0,-24.0
43.67030882835388,,,745.0,80.0,1875.0,-19.0,-5.0,-25.0
43.71530604362488,,,880.0,73.0,1689.0,-17.0,-2.0,-23.0
43.756343364715576,,,819.0,233.0,1753.0,-14.0,-1.0,-21.0
43.817708253860474,,,757.0,191.0,1859.0,-10.0,1.0,-26.0
43.86274600028992,,,741.0,286.0,1855.0,-7.0,0.0,-22.0
43.90791296958923,,,885.0,288.0,1754.0,-3.0,2.0,-14.0
43.95295071601868,,,932.0,69.0,1744.0,-2.0,3.0,-12.0
43.99794006347656,,,887.0,101.0,1717.0,-1.0,4.0,-13.0
44.04305028915405,,,992.0,209.0,1815.0,1.0,7.0,-7.0
44.08801531791687,,,741.0,101.0,2130.0,8.0,7.0,6.0
44.13317584991455,,,546.0,-567.0,2280.0,7.0,4.0,8.0
44.178236961364746,,,533.0,-808.0,2091.0,2.0,1.0,2.0
44.22321939468384,,,620.0,-724.0,1782.0,-2.0,-4.0,2.0
44.2682888507843,,,436.0,-604.0,1703.0,-1.0,0.0,1.0
44.31345558166504,,,81.0,-620.0,2007.0,0.0,1.0,2.0
44.35843110084534,,,262.0,-705.0,2098.0,-4.0,1.0,2.0
44.40336871147156,,,408.0,-489.0,1924.0,-6.0,-2.0,5.0
44.44836735725403,,,350.0,-519.0,1656.0,-7.0,-3.0,5.0
44.49361038208008,,,182.0,-527.0,1503.0,-4.0,-1.0,1.0
44.53866672515869,,,-12.0,-585.0,1636.0,-2.0,0.0,2.0
44.58371567726135,,,228.0,-600.0,1700.0,-3.0,0.0,1.0
44.62873387336731,,,284.0,-534.0,1651.0,-2.0,-2.0,2.0
44.673723459243774,,,70.0,-636.0,1595.0,-1.0,-1.0,2.0
44.71875834465027,,,8.0,-713.0,1561.0,1.0,1.0,-1.0
44.76390814781189,,,159.0,-645.0,1560.0,0.0,1.0,-5.0
44.80891013145447,,,92.0,-500.0,1591.0,0.0,1.0,-3.0
44.85394835472107,,,74.0,-414.0,1537.0,1.0,2.0,-1.0
44.899067640304565,,,14.0,-467.0,1554.0,2.0,3.0,1.0
44.94424390792847,,,137.0,-572.0,1611.0,1.0,2.0,0.0
44.989280700683594,,,129.0,-531.0,1655.0,0.0,2.0,0.0
45.03424835205078,,,68.0,-504.0,1722.0,0.0,1.0,0.0
45.07929992675781,,,57.0,-494.0,1721.0,-1.0,2.0,-1.0
45.12440299987793,,,139.0,-385.0,1767.0,-3.0,1.0,-4.0
45.1693217754364,,,160.0,-165.0,1810.0,-4.0,-1.0,-1.0
45.2144250869751,,,146.0,-72.0,1749.0,-4.0,-1.0,4.0
45.25940012931824,,,172.0,-177.0,1716.0,-4.0,-2.0,6.0
45.304606676101685,,,160.0,-183.0,1677.0,-4.0,-2.0,3.0
45.34959292411804,,,145.0,-131.0,1670.0,-4.0,-2.0,2.0
45.39459538459778,,,86.0,-79.0,1631.0,-2.0,-2.0,3.0
45.439661741256714,,,113.0,-175.0,1603.0,-1.0,-2.0,4.0
45.484824657440186,,,162.0,-293.0,1651.0,-1.0,-1.0,0.0
45.529759645462036,,,164.0,-283.0,1634.0,0.0,-1.0,-2.0
45.574962854385376,,,74.0,-222.0,1604.0,1.0,-1.0,-2.0
45.61994528770447,,,56.0,-217.0,1612.0,1.0,0.0,-2.0
45.66507029533386,,,48.0,-214.0,1566.0,2.0,0.0,-3.0
45.71015000343323,,,39.0,-194.0,1643.0,2.0,0.0,-4.0
45.75511336326599,,,63.0,-165.0,1653.0,2.0,1.0,-4.0
45.80008792877197,,,79.0,-163.0,1705.0,2.0,0.0,-3.0
45.84507727622986,,,118.0,-140.0,1670.0,2.0,1.0,-3.0
45.89012169837952,,,138.0,-153.0,1685.0,1.0,0.0,-2.0
45.935256242752075,,,107.0,-184.0,1661.0,1.0,0.0,-2.0
45.9804425239563,,,72.0,-204.0,1630.0,2.0,0.0,-3.0
46.025535583496094,,,52.0,-242.0,1661.0,1.0,0.0,-3.0
46.07047438621521,,,44.0,-226.0,1637.0,2.0,0.0,-4.0
46.115644693374634,,,77.0,-220.0,1675.0,0.0,-1.0,-3.0
46.15655994415283,,,68.0,-168.0,1671.0,0.0,-1.0,-2.0
46.20149636268616,,,22.0,-276.0,1649.0,0.0,-1.0,-2.0
46.24653768539429,,,24.0,-221.0,1598.0,0.0,0.0,-2.0
46.29166531562805,,,49.0,-195.0,1634.0,-1.0,0.0,-1.0
46.33682370185852,,,27.0,-180.0,1715.0,-1.0,0.0,0.0
46.381669998168945,,,51.0,-233.0,1693.0,-2.0,1.0,0.0
46.42687511444092,,,66.0,-219.0,1713.0,-2.0,0.0,-1.0
46.4882447719574,,,77.0,-163.0,1714.0,-3.0,-1.0,-2.0
46.53325581550598,,,51.0,-118.0,1675.0,-3.0,-1.0,0.0
46.57844877243042,,,10.0,-180.0,1681.0,-3.0,0.0,0.0
46.62342572212219,,,44.0,-152.0,1713.0,-3.0,-1.0,-3.0
46.66843295097351,,,40.0,-110.0,1707.0,-3.0,-1.0,-2.0
46.71354651451111,,,33.0,-51.0,1645.0,-3.0,-1.0,0.0
46.75867295265198,,,4.0,-114.0,1691.0,-3.0,-1.0,-1.0
46.80363392829895,,,26.0,-65.0,1639.0,-3.0,-1.0,-3.0
46.848570108413696,,,-16.0,-64.0,1623.0,-2.0,-2.0,-1.0
46.89375853538513,,,-2.0,-152.0,1591.0,-2.0,0.0,-2.0
46.93879532814026,,,5.0,-147.0,1647.0,-2.0,-1.0,-4.0
46.983911991119385,,,12.0,-70.0,1647.0,-1.0,0.0,-3.0
47.02899384498596,,,23.0,-84.0,1646.0,-2.0,0.0,-2.0
47.07391428947449,,,13.0,-50.0,1653.0,-1.0,1.0,-2.0
47.119197845458984,,,45.0,-58.0,1668.0,-1.0,1.0,-2.0
47.164066791534424,,,85.0,-48.0,1738.0,-1.0,1.0,0.0
47.20913529396057,,,103.0,-44.0,1702.0,-1.0,1.0,-1.0
47.2541081905365,,,82.0,-27.0,1740.0,-1.0,0.0,0.0
47.299328088760376,,,161.0,-14.0,1705.0,0.0,0.0,0.0
47.3444390296936,,,119.0,-37.0,1695.0,-1.0,-1.0,1.0
47.38940072059631,,,28.0,-58.0,1687.0,0.0,-1.0,0.0
47.43434190750122,,,32.0,-85.0,1721.0,0.0,-2.0,0.0
47.479360818862915,,,46.0,-141.0,1716.0,0.0,-2.0,-1.0
47.52443528175354,,,21.0,-143.0,1709.0,-1.0,-2.0,-1.0
47.569575548172,,,21.0,-117.0,1668.0,-1.0,-2.0,-2.0
47.61469483375549,,,-12.0,-80.0,1614.0,-1.0,-1.0,-1.0
47.688395261764526,,,-29.0,-88.0,1628.0,-1.0,-1.0,-1.0
47.72107458114624,,,2.0,-150.0,1669.0,-2.0,0.0,-2.0
47.761962890625,,,17.0,-42.0,1675.0,-2.0,0.0,-1.0
47.80712175369263,,,3.0,-72.0,1683.0,-2.0,0.0,0.0
47.85213255882263,,,-19.0,-93.0,1644.0,-2.0,1.0,-2.0
47.89726495742798,,,42.0,-61.0,1678.0,-2.0,0.0,-2.0
47.942336320877075,,,27.0,-32.0,1702.0,-2.0,1.0,0.0
48.003878355026245,,,59.0,-70.0,1690.0,-1.0,0.0,0.0
48.04865741729736,,,67.0,-106.0,1653.0,-2.0,0.0,-1.0
48.0938138961792,,,39.0,-135.0,1609.0,-1.0,0.0,-1.0
48.138916015625,,,41.0,-108.0,1621.0,-2.0,0.0,-2.0
48.184096336364746,,,11.0,-73.0,1605.0,-1.0,-1.0,-2.0
48.22909736633301,,,-6.0,-59.0,1602.0,-1.0,0.0,-1.0
48.27402400970459,,,-1.0,-120.0,1649.0,-1.0,1.0,-1.0
48.31907272338867,,,1.0,-94.0,1697.0,-1.0,1.0,-1.0
48.36417078971863,,,33.0,-44.0,1606.0,-1.0,1.0,-2.0
48.40916585922241,,,-37.0,8.0,1626.0,0.0,1.0,-1.0
48.454270362854004,,,16.0,-44.0,1681.0,0.0,1.0,-1.0
48.499417543411255,,,71.0,-30.0,1728.0,0.0,0.0,-2.0
48.544395208358765,,,40.0,-37.0,1703.0,1.0,0.0,-1.0
48.58955264091492,,,89.0,-27.0,1693.0,0.0,0.0,-1.0
48.63477945327759,,,67.0,-18.0,1744.0,0.0,-1.0,-2.0
48.67954111099243,,,50.0,36.0,1738.0,0.0,-1.0,-1.0
48.72453951835632,,,93.0,27.0,1715.0,0.0,-1.0,2.0
48.76968312263489,,,98.0,-115.0,1697.0,0.0,-2.0,0.0
48.814674615859985,,,103.0,-78.0,1725.0,-1.0,-2.0,-3.0
48.859750747680664,,,74.0,142.0,1743.0,-1.0,-2.0,1.0
48.90486001968384,,,71.0,101.0,1642.0,0.0,-1.0,6.0
48.94990849494934,,,-13.0,15.0,1627.0,0.0,-2.0,5.0
48.994844913482666,,,-20.0,-4.0,1639.0,1.0,-2.0,5.0
49.03989887237549,,,-27.0,-145.0,1680.0,1.0,-3.0,5.0
49.08493781089783,,,-47.0,-181.0,1636.0,1.0,-3.0,0.0
49.130013942718506,,,-83.0,-143.0,1604.0,2.0,-3.0,-2.0
49.17522954940796,,,-25.0,-85.0,1525.0,2.0,-1.0,-1.0
49.22020363807678,,,-72.0,-89.0,1585.0,1.0,-1.0,-3.0
49.26532506942749,,,-44.0,-148.0,1589.0,0.0,1.0,-3.0
49.31030774116516,,,-70.0,-142.0,1629.0,-1.0,2.0,-4.0
49.355565309524536,,,-99.0,-164.0,1709.0,-3.0,2.0,-6.0
49.40041542053223,,,29.0,-43.0,1667.0,-5.0,4.0,-6.0
49.4453821182251,,,40.0,36.0,1716.0,-4.0,4.0,-6.0
49.490408182144165,,,26.0,178.0,1775.0,-5.0,3.0,-4.0
49.53557562828064,,,130.0,168.0,1727.0,-4.0,3.0,-1.0
49.58077049255371,,,244.0,19.0,1576.0,-3.0,2.0,-2.0
49.62571835517883,,,168.0,-186.0,1485.0,0.0,2.0,-9.0
49.67078518867493,,,70.0,-217.0,1566.0,1.0,3.0,-13.0
49.71577000617981,,,108.0,-105.0,1649.0,1.0,2.0,-13.0
49.760820627212524,,,74.0,45.0,1641.0,1.0,2.0,-9.0
49.80582022666931,,,7.0,-11.0,1645.0,2.0,3.0,-3.0
49.850894927978516,,,1.0,-226.0,1704.0,2.0,3.0,-3.0
49.896074533462524,,,68.0,-269.0,1698.0,0.0,2.0,-5.0
49.93709850311279,,,33.0,-187.0,1653.0,0.0,1.0,-3.0
49.98210382461548,,,48.0,-116.0,1608.0,-1.0,2.0,1.0
50.02709984779358,,,44.0,-216.0,1648.0,0.0,1.0,2.0
50.08862829208374,,,83.0,-299.0,1651.0,0.0,1.0,1.0
50.13360619544983,,,109.0,-330.0,1620.0,0.0,-1.0,0.0
50.17865252494812,,,30.0,-268.0,1562.0,0.0,-2.0,-1.0
50.22370004653931,,,-26.0,-142.0,1582.0,1.0,-2.0,2.0
50.26875281333923,,,10.0,-216.0,1668.0,0.0,-1.0,0.0
50.31375575065613,,,69.0,-148.0,1676.0,1.0,-2.0,0.0
50.35894751548767,,,64.0,-70.0,1665.0,0.0,-1.0,2.0
50.40394449234009,,,31.0,-116.0,1643.0,1.0,-1.0,4.0
50.449018239974976,,,60.0,-137.0,1671.0,0.0,-2.0,1.0
50.49401116371155,,,61.0,-40.0,1678.0,1.0,-3.0,3.0
50.539037466049194,,,137.0,-87.0,1553.0,1.0,-2.0,4.0
50.58419394493103,,,42.0,-112.0,1554.0,1.0,-3.0,2.0
50.64561581611633,,,45.0,-119.0,1568.0,1.0,-2.0,2.0
50.69053840637207,,,-22.0,-146.0,1643.0,1.0,-2.0,2.0
50.735759973526,,,-31.0,-165.0,1623.0,1.0,-2.0,1.0
50.78079605102539,,,5.0,-113.0,1576.0,-1.0,-2.0,1.0
50.825902462005615,,,-5.0,-60.0,1583.0,0.0,-1.0,1.0
50.8748722076416,,,-27.0,-41.0,1581.0,-2.0,0.0,1.0
50.91589903831482,,,-39.0,-8.0,1589.0,-1.0,0.0,2.0
50.96087574958801,,,-3.0,-102.0,1628.0,-2.0,1.0,1.0
51.00603461265564,,,71.0,-29.0,1606.0,-6.0,1.0,0.0
51.05100345611572,,,8.0,-41.0,1603.0,-3.0,2.0,0.0
51.096091747283936,,,22.0,-122.0,1572.0,-4.0,1.0,-6.0
51.14111876487732,,,12.0,101.0,1579.0,-2.0,0.0,-1.0
51.18201160430908,,,-61.0,34.0,1567.0,1.0,0.0,3.0
51.22712469100952,,,-100.0,-124.0,1661.0,1.0,-1.0,1.0
51.27219343185425,,,-58.0,-165.0,1685.0,1.0,-2.0,-3.0
51.317291021347046,,,-54.0,-91.0,1695.0,1.0,-2.0,-2.0
51.36241388320923,,,-40.0,-1.0,1652.0,0.0,-2.0,0.0
51.4073166847229,,,-49.0,-54.0,1572.0,1.0,-3.0,-2.0
51.452345848083496,,,-66.0,-61.0,1532.0,-1.0,-2.0,-3.0
51.49754476547241,,,-32.0,-61.0,1552.0,0.0,-1.0,-1.0
51.542556047439575,,,-29.0,-128.0,1619.0,-1.0,-1.0,-2.0
51.58761763572693,,,-44.0,-128.0,1642.0,-2.0,0.0,-3.0
51.63276481628418,,,-20.0,-91.0,1609.0,-2.0,0.0,-4.0
51.677680253982544,,,-31.0,0.0,1627.0,-3.0,0.0,-2.0
51.72277355194092,,,9.0,5.0,1586.0,-2.0,1.0,-1.0
51.767762422561646,,,33.0,-60.0,1596.0,-2.0,0.0,-2.0
51.812915563583374,,,16.0,-15.0,1579.0,-2.0,1.0,-3.0
51.8579626083374,,,47.0,52.0,1633.0,-2.0,1.0,-4.0
51.90302300453186,,,85.0,98.0,1577.0,-1.0,1.0,-2.0
51.9479398727417,,,106.0,75.0,1554.0,-1.0,1.0,0.0
51.993197441101074,,,31.0,28.0,1599.0,1.0,1.0,-1.0
52.038166522979736,,,22.0,-57.0,1637.0,1.0,2.0,-2.0
52.08311891555786,,,27.0,-42.0,1695.0,1.0,1.0,-2.0
52.128204584121704,,,25.0,-45.0,1670.0,1.0,1.0,-1.0
52.173423290252686,,,11.0,-104.0,1659.0,1.0,0.0,-1.0
52.218392848968506,,,37.0,-104.0,1654.0,0.0,0.0,-2.0
52.26337480545044,,,87.0,-62.0,1692.0,0.0,-1.0,-3.0
52.30850863456726,,,85.0,36.0,1635.0,-1.0,0.0,-2.0
52.35354495048523,,,74.0,31.0,1619.0,-1.0,0.0,1.0
52.398489475250244,,,-2.0,-93.0,1655.0,0.0,-1.0,0.0
52.443565368652344,,,-33.0,-229.0,1666.0,0.0,-1.0,-4.0
52.48858642578125,,,39.0,-131.0,1607.0,0.0,-2.0,-6.0
52.53384351730347,,,-32.0,45.0,1577.0,1.0,-2.0,-2.0
52.57898139953613,,,-54.0,26.0,1608.0,1.0,-1.0,2.0
52.623947620391846,,,-17.0,-181.0,1702.0,0.0,-2.0,0.0
52.66901707649231,,,38.0,-123.0,1623.0,0.0,-2.0,-3.0
52.71400737762451,,,-13.0,-26.0,1603.0,0.0,-2.0,0.0
52.7630410194397,,,-15.0,-57.0,1660.0,-1.0,-2.0,0.0
52.80397057533264,,,-2.0,-60.0,1669.0,-1.0,-2.0,0.0
52.84904170036316,,,-5.0,-36.0,1664.0,-2.0,-2.0,-1.0
52.89428496360779,,,6.0,-20.0,1681.0,-2.0,-2.0,2.0
52.93924140930176,,,8.0,-25.0,1641.0,-3.0,-1.0,2.0
52.984397172927856,,,-38.0,-38.0,1690.0,-2.0,-2.0,1.0
53.02944040298462,,,-22.0,-27.0,1655.0,-2.0,-1.0,0.0
53.074339866638184,,,-3.0,44.0,1683.0,-2.0,-2.0,1.0
53.12356233596802,,,-19.0,39.0,1690.0,-2.0,-2.0,1.0
53.16447114944458,,,18.0,49.0,1663.0,-2.0,-2.0,1.0
53.20948123931885,,,-37.0,5.0,1684.0,-1.0,-2.0,2.0
53.254626512527466,,,-58.0,-68.0,1745.0,0.0,-2.0,0.0
53.29961895942688,,,-21.0,38.0,1769.0,0.0,-2.0,-4.0
53.34480810165405,,,65.0,54.0,1771.0,1.0,-2.0,-2.0
53.38994836807251,,,187.0,48.0,1797.0,2.0,-2.0,-3.0
53.434980392456055,,,242.0,66.0,1701.0,3.0,-3.0,-3.0
53.479840993881226,,,176.0,-22.0,1684.0,3.0,-2.0,-5.0
53.52498459815979,,,171.0,30.0,1685.0,3.0,-2.0,-7.0
53.59052658081055,,,114.0,37.0,1704.0,3.0,-1.0,-3.0
53.627426862716675,,,160.0,50.0,1655.0,1.0,0.0,-3.0
53.67248797416687,,,120.0,145.0,1542.0,1.0,0.0,-1.0
53.71740174293518,,,167.0,145.0,1380.0,1.0,4.0,5.0
53.762574911117554,,,235.0,76.0,1273.0,0.0,6.0,8.0
53.80752658843994,,,300.0,-81.0,1198.0,-1.0,9.0,6.0
53.85256481170654,,,42.0,129.0,1427.0,-1.0,10.0,8.0
53.897751331329346,,,-64.0,66.0,1619.0,0.0,15.0,7.0
53.94267511367798,,,-69.0,-40.0,2079.0,0.0,15.0,7.0
53.98797273635864,,,248.0,0.0,2317.0,1.0,12.0,8.0
54.03299117088318,,,501.0,-44.0,1977.0,-2.0,10.0,9.0
54.077900409698486,,,315.0,-27.0,1738.0,0.0,5.0,1.0
54.122889280319214,,,288.0,349.0,1347.0,-2.0,1.0,-4.0
54.1680006980896,,,32.0,667.0,1249.0,3.0,1.0,2.0
54.213027000427246,,,-320.0,469.0,1459.0,8.0,3.0,12.0
54.258131980895996,,,-78.0,110.0,1538.0,4.0,3.0,21.0
54.303184032440186,,,-30.0,-101.0,1417.0,6.0,3.0,13.0
54.34828042984009,,,0.0,-64.0,1059.0,5.0,-1.0,10.0
54.393314599990845,,,-220.0,-141.0,802.0,10.0,-1.0,15.0
54.43831014633179,,,-433.0,-669.0,962.0,17.0,5.0,10.0
54.483388900756836,,,-139.0,-1045.0,1077.0,11.0,7.0,-12.0
54.52847456932068,,,-156.0,-914.0,1214.0,7.0,2.0,-29.0
54.5776424407959,,,-294.0,-456.0,1133.0,3.0,3.0,-29.0
54.622742891311646,,,-260.0,-17.0,1214.0,3.0,7.0,-18.0
54.680092573165894,,,-78.0,90.0,1326.0,-2.0,7.0,-13.0
54.724958658218384,,,-116.0,264.0,1560.0,-5.0,5.0,-8.0
54.770066261291504,,,33.0,158.0,1310.0,-6.0,4.0,1.0
54.815138816833496,,,-3.0,-82.0,1263.0,-8.0,4.0,0.0
54.860158920288086,,,63.0,-146.0,1292.0,-13.0,3.0,-7.0
54.9134738445282,,,91.0,-115.0,1252.0,-10.0,2.0,-13.0
55.06918430328369,,,202.0,59.0,1174.0,-12.0,1.0,-13.0
55.102317571640015,,,101.0,212.0,1270.0,-10.0,-1.0,-12.0
55.142993688583374,,,45.0,221.0,1130.0,-7.0,1.0,-11.0
55.18802332878113,,,60.0,-28.0,1160.0,-4.0,1.0,-12.0
55.23305058479309,,,150.0,-339.0,1356.0,-4.0,1.0,-18.0
55.277955293655396,,,271.0,-398.0,1318.0,-7.0,-1.0,-23.0
55.323076248168945,,,258.0,-183.0,1264.0,-11.0,-3.0,-24.0
55.368030071258545,,,125.0,217.0,1207.0,-12.0,-2.0,-17.0
55.413164377212524,,,-32.0,264.0,1249.0,-8.0,-1.0,-6.0
55.45820474624634,,,-32.0,-26.0,1298.0,-7.0,1.0,-4.0
55.507500410079956,,,110.0,-294.0,1307.0,-7.0,-1.0,-8.0
55.60570311546326,,,-52.0,-352.0,1441.0,-5.0,-3.0,-10.0
55.63837909698486,,,-30.0,-440.0,1722.0,-6.0,-4.0,-14.0
55.68344712257385,,,290.0,-122.0,1738.0,-9.0,-8.0,-12.0
55.72845935821533,,,160.0,-56.0,1664.0,-1.0,-11.0,-5.0
55.77360153198242,,,129.0,-106.0,1557.0,-2.0,-11.0,2.0
55.818674087524414,,,-23.0,-337.0,1553.0,5.0,-14.0,1.0
55.86370372772217,,,-38.0,-703.0,1332.0,6.0,-14.0,-4.0
55.90886449813843,,,-158.0,-835.0,1281.0,9.0,-16.0,-10.0
55.95384120941162,,,-203.0,-888.0,1223.0,11.0,-13.0,-14.0
55.99903321266174,,,-158.0,-945.0,1275.0,12.0,-13.0,-11.0
56.04388785362244,,,-2.0,-1029.0,1227.0,12.0,-11.0,-11.0
56.088951110839844,,,225.0,-1019.0,1254.0,11.0,-9.0,-10.0
56.134313344955444,,,369.0,-884.0,1197.0,8.0,-7.0,-10.0
56.17905306816101,,,280.0,-625.0,1154.0,7.0,-3.0,-6.0
56.228270530700684,,,-79.0,-510.0,1490.0,8.0,0.0,-3.0
56.26924204826355,,,-354.0,-538.0,1828.0,4.0,4.0,-3.0
56.314390659332275,,,-87.0,-398.0,2010.0,-2.0,4.0,-1.0
56.3593955039978,,,148.0,-217.0,2016.0,-1.0,3.0,7.0
56.40425252914429,,,98.0,-285.0,1952.0,0.0,4.0,12.0
56.44939970970154,,,176.0,-273.0,1953.0,-3.0,5.0,14.0
56.49443602561951,,,435.0,-33.0,2084.0,-4.0,2.0,18.0
56.5395827293396,,,509.0,355.0,2061.0,-4.0,0.0,24.0
56.588683128356934,,,402.0,560.0,1835.0,-1.0,-2.0,30.0
56.62975573539734,,,341.0,613.0,1678.0,2.0,-2.0,32.0
56.67465901374817,,,260.0,503.0,1730.0,4.0,-3.0,32.0
56.719805002212524,,,319.0,499.0,1769.0,4.0,-5.0,27.0
56.76480722427368,,,332.0,755.0,1768.0,5.0,-6.0,28.0
56.80985498428345,,,335.0,966.0,1683.0,5.0,-6.0,31.0
56.85490560531616,,,294.0,1145.0,1501.0,7.0,-6.0,34.0
56.90002226829529,,,244.0,1033.0,1455.0,11.0,-4.0,36.0
57.00648593902588,,,257.0,831.0,1572.0,11.0,-1.0,31.0
57.051499128341675,,,-1217.0,985.0,748.0,6.0,-3.0,44.0
57.09670543670654,,,-1099.0,827.0,632.0,3.0,-4.0,39.0
57.15393590927124,,,-1175.0,946.0,617.0,1.0,-6.0,38.0
57.215497970581055,,,-1409.0,997.0,877.0,3.0,-5.0,44.0
57.260473012924194,,,-1316.0,892.0,1122.0,4.0,-1.0,45.0
57.30557322502136,,,-1056.0,1113.0,1154.0,1.0,-1.0,45.0
57.35058617591858,,,-997.0,1263.0,958.0,0.0,-2.0,44.0
57.39554023742676,,,-1168.0,1068.0,877.0,4.0,-5.0,45.0
57.44060468673706,,,-1091.0,748.0,890.0,9.0,-4.0,39.0
57.48568344116211,,,-921.0,624.0,1109.0,10.0,-3.0,24.0
57.530752658843994,,,-790.0,780.0,1258.0,11.0,-3.0,8.0
57.57589292526245,,,-775.0,1162.0,1260.0,11.0,-3.0,5.0
57.620919942855835,,,-762.0,1382.0,1230.0,8.0,-4.0,11.0
57.665995836257935,,,-732.0,1448.0,1126.0,8.0,-3.0,16.0
57.71107506752014,,,-626.0,1219.0,1039.0,6.0,-5.0,12.0
57.75614666938782,,,-656.0,1200.0,874.0,2.0,-5.0,6.0
57.801021337509155,,,-865.0,1260.0,830.0,2.0,-4.0,9.0
57.84600901603699,,,-858.0,1340.0,840.0,4.0,-4.0,16.0
57.891075134277344,,,-642.0,1237.0,949.0,7.0,-4.0,23.0
57.936208724975586,,,-339.0,866.0,1153.0,8.0,-6.0,20.0
57.98142218589783,,,-128.0,618.0,1508.0,8.0,-6.0,6.0
58.026264905929565,,,-126.0,586.0,1787.0,7.0,-3.0,-10.0
58.07142782211304,,,-448.0,1071.0,1979.0,1.0,-5.0,-11.0
58.11641025543213,,,-694.0,1604.0,1563.0,-2.0,-4.0,3.0
58.16159534454346,,,-903.0,1540.0,1588.0,-3.0,-8.0,10.0
58.20656418800354,,,-868.0,1367.0,1406.0,-11.0,-7.0,-2.0
58.251524209976196,,,-1255.0,1439.0,1171.0,-17.0,-12.0,-12.0
58.30914115905762,,,-1685.0,1441.0,769.0,-12.0,-9.0,-7.0
58.35394501686096,,,-1634.0,934.0,845.0,-4.0,-3.0,-4.0
58.39895439147949,,,-1141.0,602.0,1264.0,-6.0,0.0,-16.0
58.44406318664551,,,-925.0,852.0,1577.0,-8.0,1.0,-28.0
58.48924231529236,,,-850.0,1115.0,1597.0,-9.0,-3.0,-27.0
58.53452157974243,,,-927.0,1122.0,1294.0,-10.0,-3.0,-20.0
58.57931113243103,,,-1011.0,958.0,1110.0,-9.0,-4.0,-16.0
58.62440633773804,,,-1101.0,858.0,1184.0,-6.0,-1.0,-21.0
58.66943287849426,,,-1159.0,1067.0,1265.0,-7.0,1.0,-21.0
58.71486020088196,,,-1132.0,1572.0,1260.0,-4.0,2.0,-6.0
58.759469985961914,,,-835.0,1509.0,1330.0,-1.0,1.0,10.0
58.80450797080994,,,-439.0,1221.0,1369.0,3.0,1.0,10.0
58.84952259063721,,,-89.0,1037.0,1320.0,7.0,0.0,8.0
58.894609689712524,,,-25.0,837.0,1502.0,10.0,-2.0,6.0
58.93979454040527,,,-10.0,612.0,1670.0,11.0,-2.0,4.0
58.98475217819214,,,-95.0,606.0,1699.0,13.0,-1.0,0.0
59.0298068523407,,,69.0,597.0,1795.0,11.0,0.0,0.0
59.09133005142212,,,166.0,586.0,1725.0,11.0,0.0,-3.0
59.13638997077942,,,235.0,417.0,1659.0,8.0,1.0,-5.0
59.18151307106018,,,105.0,182.0,1805.0,7.0,3.0,-4.0
59.22650194168091,,,136.0,-130.0,2093.0,7.0,3.0,-3.0
59.27158856391907,,,363.0,-125.0,1991.0,2.0,3.0,-9.0
59.316566467285156,,,185.0,46.0,1765.0,-3.0,-1.0,-13.0
59.36161684989929,,,-68.0,242.0,1352.0,-5.0,-2.0,-11.0
59.40663552284241,,,-331.0,253.0,1047.0,-3.0,-1.0,-4.0
59.45164465904236,,,-370.0,50.0,1068.0,-1.0,2.0,1.0
59.49698543548584,,,-238.0,-70.0,1294.0,0.0,3.0,0.0
59.54189348220825,,,-75.0,136.0,1498.0,-5.0,1.0,4.0
59.58692288398743,,,-50.0,155.0,1616.0,-4.0,-1.0,8.0
59.63202404975891,,,-39.0,20.0,1468.0,-3.0,-1.0,12.0
59.67692708969116,,,-35.0,-211.0,1419.0,-3.0,0.0,8.0
59.72204566001892,,,-83.0,-40.0,1301.0,-5.0,1.0,2.0
59.76300263404846,,,-339.0,298.0,1177.0,-2.0,0.0,4.0
59.808061599731445,,,-533.0,380.0,1162.0,0.0,0.0,17.0
59.85296654701233,,,-443.0,318.0,1298.0,0.0,2.0,26.0
59.89820671081543,,,-200.0,353.0,1573.0,-3.0,-1.0,25.0
59.95970702171326,,,-435.0,630.0,1580.0,-6.0,-2.0,27.0
60.00455927848816,,,-753.0,602.0,1511.0,-3.0,-4.0,32.0
60.049750328063965,,,-991.0,121.0,1806.0,1.0,-4.0,31.0
60.09883379936218,,,-822.0,678.0,1756.0,-4.0,0.0,36.0
60.139877796173096,,,-880.0,1228.0,1778.0,-2.0,-2.0,43.0
60.18498253822327,,,-931.0,1269.0,1367.0,-4.0,-12.0,41.0
60.23005437850952,,,-1308.0,861.0,682.0,-1.0,-17.0,43.0
60.274983406066895,,,-1552.0,-46.0,672.0,7.0,-16.0,45.0
60.31996273994446,,,-982.0,-290.0,936.0,10.0,-11.0,38.0
60.36516523361206,,,-217.0,213.0,859.0,8.0,-9.0,32.0
60.410160303115845,,,-40.0,-9.0,756.0,19.0,-5.0,25.0
60.45534873008728,,,234.0,-6.0,1045.0,3.0,-4.0,4.0
60.50029110908508,,,-62.0,441.0,1045.0,1.0,-5.0,-6.0
60.5453827381134,,,-494.0,327.0,1123.0,4.0,-3.0,-7.0
60.59041666984558,,,-785.0,401.0,1034.0,5.0,-2.0,4.0
60.63551163673401,,,-866.0,455.0,1152.0,4.0,-2.0,10.0
60.680503845214844,,,-1270.0,264.0,1687.0,15.0,0.0,14.0
60.725433349609375,,,-1359.0,321.0,2689.0,13.0,3.0,24.0
60.77049493789673,,,-1543.0,1436.0,2004.0,-5.0,2.0,29.0
60.81564664840698,,,-2194.0,1018.0,1057.0,-5.0,-11.0,27.0
60.877172231674194,,,-2521.0,48.0,644.0,-6.0,-17.0,23.0
60.92210912704468,,,-2831.0,-373.0,569.0,2.0,-14.0,36.0
60.96720600128174,,,-2279.0,-637.0,1136.0,13.0,-9.0,49.0
61.012256383895874,,,-1099.0,-88.0,1295.0,9.0,-5.0,30.0
61.0572509765625,,,-643.0,-45.0,1115.0,9.0,-10.0,-1.0
61.09822225570679,,,-729.0,-320.0,1242.0,7.0,-13.0,-22.0
61.14346933364868,,,-1430.0,-42.0,1027.0,3.0,-5.0,-26.0
61.18835711479187,,,-1735.0,164.0,931.0,6.0,-8.0,-17.0
61.23352289199829,,,-1644.0,158.0,813.0,2.0,-7.0,-10.0
61.27854561805725,,,-1343.0,94.0,1008.0,2.0,-9.0,-7.0
61.32352685928345,,,-937.0,-1.0,1295.0,4.0,-5.0,-15.0
61.3685507774353,,,-509.0,114.0,1646.0,0.0,-7.0,-18.0
61.43421816825867,,,-228.0,338.0,1840.0,-5.0,-7.0,-24.0
61.475056171417236,,,-474.0,426.0,1945.0,-4.0,-15.0,-28.0
61.520139932632446,,,-183.0,341.0,2107.0,-5.0,-22.0,-35.0
61.565107583999634,,,-120.0,-3.0,2199.0,1.0,-24.0,-51.0
61.6101861000061,,,-242.0,-234.0,2340.0,4.0,-26.0,-59.0
61.66362476348877,,,-285.0,-103.0,2435.0,11.0,-27.0,-60.0
61.70027256011963,,,-54.0,-337.0,2587.0,17.0,-28.0,-54.0
61.745516777038574,,,350.0,-688.0,2847.0,26.0,-32.0,-66.0
61.790579319000244,,,502.0,-846.0,2513.0,23.0,-34.0,-66.0
61.835461139678955,,,325.0,-694.0,2076.0,27.0,-35.0,-59.0
61.88060402870178,,,489.0,-1050.0,1813.0,28.0,-33.0,-53.0
61.92564034461975,,,711.0,-1361.0,1746.0,26.0,-27.0,-49.0
61.97063422203064,,,1002.0,-1456.0,1794.0,23.0,-23.0,-40.0
62.0158896446228,,,1289.0,-1665.0,1466.0,14.0,-18.0,-36.0
62.06073188781738,,,1333.0,-1543.0,1690.0,9.0,-12.0,-28.0
62.10606265068054,,,1294.0,-1308.0,1843.0,14.0,-14.0,-42.0
62.15102291107178,,,375.0,-1245.0,2180.0,13.0,-9.0,-19.0
62.19597935676575,,,467.0,-1350.0,2254.0,22.0,-2.0,2.0
62.24099040031433,,,949.0,-1618.0,1876.0,25.0,4.0,3.0
62.28594136238098,,,1756.0,-1812.0,1987.0,17.0,2.0,-8.0
62.33106350898743,,,1596.0,-1515.0,1841.0,10.0,5.0,0.0
62.376240730285645,,,1340.0,-1307.0,1881.0,4.0,8.0,7.0
62.42132019996643,,,1326.0,-1212.0,1966.0,-3.0,8.0,0.0
62.46637511253357,,,1504.0,-1063.0,2370.0,-8.0,6.0,-2.0
62.51150989532471,,,869.0,-612.0,2915.0,-2.0,-1.0,15.0
62.556397676467896,,,250.0,-701.0,3076.0,0.0,4.0,30.0
62.60155940055847,,,555.0,-837.0,2853.0,-1.0,-2.0,46.0
62.64663290977478,,,558.0,-1114.0,2121.0,-3.0,2.0,21.0
62.69150733947754,,,568.0,-824.0,2134.0,-2.0,6.0,12.0
62.736573696136475,,,236.0,-654.0,2409.0,2.0,6.0,9.0
62.781726598739624,,,614.0,-619.0,2583.0,-3.0,1.0,-16.0
62.826794385910034,,,248.0,-295.0,2862.0,-3.0,1.0,-10.0
62.87184476852417,,,3.0,-175.0,2759.0,3.0,3.0,4.0
62.916911602020264,,,220.0,-1.0,2838.0,0.0,3.0,15.0
62.961928367614746,,,137.0,-193.0,2687.0,2.0,-3.0,12.0
63.019198417663574,,,404.0,-458.0,2276.0,0.0,0.0,1.0
63.064326763153076,,,348.0,-327.0,2360.0,1.0,1.0,-2.0
63.10943865776062,,,255.0,-410.0,2350.0,0.0,3.0,-4.0
63.15447402000427,,,357.0,-143.0,2434.0,-1.0,3.0,-5.0
63.19937324523926,,,310.0,-116.0,2536.0,1.0,5.0,-4.0
63.24438977241516,,,426.0,27.0,2718.0,-1.0,3.0,-7.0
63.293561697006226,,,356.0,44.0,2928.0,1.0,-2.0,-5.0
63.33455276489258,,,74.0,96.0,2825.0,3.0,1.0,12.0
63.37970852851868,,,289.0,-125.0,2491.0,1.0,-1.0,7.0
63.42475628852844,,,426.0,-171.0,2364.0,-3.0,-2.0,-10.0
63.4698212146759,,,249.0,-165.0,2343.0,0.0,0.0,-11.0
63.51483869552612,,,206.0,-72.0,2710.0,-1.0,0.0,-7.0
63.55997657775879,,,187.0,36.0,2700.0,2.0,1.0,1.0
63.604814529418945,,,287.0,-214.0,2604.0,0.0,-2.0,-1.0
63.65000581741333,,,291.0,-85.0,2601.0,-1.0,-3.0,-8.0
63.69497871398926,,,82.0,-108.0,2598.0,2.0,-2.0,-5.0
63.74004769325256,,,193.0,-124.0,2549.0,-2.0,-2.0,1.0
63.78533482551575,,,172.0,-47.0,2626.0,1.0,-1.0,-1.0
63.83031105995178,,,216.0,-129.0,2547.0,0.0,-2.0,-2.0
63.8753137588501,,,268.0,-122.0,2554.0,-1.0,-1.0,1.0
63.920247077941895,,,275.0,-135.0,2539.0,2.0,0.0,0.0
63.96532225608826,,,344.0,-181.0,2483.0,-2.0,-1.0,-3.0
64.01036620140076,,,149.0,-120.0,2459.0,1.0,1.0,0.0
64.05548787117004,,,183.0,-101.0,2444.0,2.0,2.0,-1.0
64.1003770828247,,,189.0,-132.0,2420.0,2.0,2.0,-4.0
64.14563512802124,,,207.0,-112.0,2504.0,1.0,2.0,-7.0
64.19056391716003,,,213.0,-40.0,2560.0,2.0,1.0,-8.0
64.23569178581238,,,294.0,-11.0,2458.0,2.0,2.0,-6.0
64.28085517883301,,,164.0,21.0,2631.0,2.0,1.0,-3.0
64.3257257938385,,,188.0,-57.0,2457.0,3.0,2.0,-1.0
64.3709671497345,,,221.0,-74.0,2506.0,1.0,-1.0,-4.0
64.41601228713989,,,224.0,-67.0,2449.0,1.0,0.0,-4.0
64.46098303794861,,,119.0,-89.0,2431.0,0.0,1.0,0.0
64.5060350894928,,,203.0,-47.0,2439.0,-1.0,0.0,-1.0
64.55110740661621,,,140.0,-77.0,2434.0,-1.0,1.0,-2.0
64.59608960151672,,,193.0,-15.0,2556.0,-2.0,-1.0,-4.0
64.6411874294281,,,125.0,-11.0,2534.0,-2.0,-1.0,-1.0
64.68618941307068,,,74.0,27.0,2477.0,-1.0,0.0,2.0
64.73119497299194,,,236.0,-27.0,2480.0,-2.0,-2.0,-4.0
64.77640461921692,,,144.0,-64.0,2364.0,-2.0,-1.0,-2.0
64.8215229511261,,,190.0,-7.0,2397.0,-2.0,-1.0,-3.0
64.86657476425171,,,111.0,-95.0,2398.0,-3.0,-1.0,-3.0
64.9116461277008,,,51.0,-88.0,2440.0,-2.0,-1.0,-2.0
64.95650601387024,,,23.0,-214.0,2567.0,-2.0,-2.0,-4.0
65.00169682502747,,,129.0,-97.0,2497.0,-2.0,0.0,-3.0
65.04667782783508,,,186.0,35.0,2448.0,1.0,0.0,-4.0
65.09168291091919,,,204.0,87.0,2467.0,3.0,0.0,-3.0
65.13685750961304,,,241.0,20.0,2383.0,3.0,2.0,-1.0
65.18194460868835,,,488.0,58.0,2324.0,3.0,2.0,-4.0
65.2270393371582,,,381.0,40.0,2348.0,2.0,2.0,-5.0
65.27202653884888,,,334.0,35.0,2397.0,1.0,2.0,-4.0
65.31698608398438,,,316.0,96.0,2452.0,2.0,0.0,-6.0
65.36198401451111,,,133.0,37.0,2497.0,2.0,1.0,-4.0
65.40699362754822,,,251.0,27.0,2447.0,2.0,1.0,-2.0
65.4521598815918,,,224.0,-19.0,2410.0,3.0,0.0,-4.0
65.49720883369446,,,283.0,-59.0,2525.0,0.0,0.0,-1.0
65.54244875907898,,,219.0,-21.0,2424.0,1.0,1.0,-2.0
65.58750224113464,,,209.0,0.0,2437.0,-1.0,0.0,-2.0
65.63252520561218,,,320.0,20.0,2408.0,-2.0,0.0,-1.0
65.67745733261108,,,196.0,145.0,2378.0,-3.0,0.0,-4.0
65.7224473953247,,,246.0,164.0,2322.0,-4.0,-1.0,-3.0
65.76754975318909,,,264.0,54.0,2302.0,-4.0,-1.0,-3.0
65.82496786117554,,,196.0,97.0,2295.0,-4.0,-1.0,0.0
65.87008333206177,,,278.0,-64.0,2313.0,-5.0,-2.0,-3.0
65.91492223739624,,,-37.0,-115.0,2333.0,-6.0,-1.0,-2.0
65.95998740196228,,,106.0,-128.0,2236.0,-4.0,1.0,-1.0
66.00501847267151,,,35.0,-297.0,2312.0,-5.0,0.0,-3.0
66.05018877983093,,,60.0,-208.0,2290.0,-3.0,0.0,-6.0
66.09519600868225,,,179.0,-217.0,2351.0,-5.0,-1.0,-6.0
66.14030647277832,,,118.0,-178.0,2277.0,-2.0,1.0,-6.0
66.18529987335205,,,204.0,-55.0,2377.0,-3.0,0.0,-7.0
66.24276041984558,,,253.0,-44.0,2365.0,-1.0,0.0,-5.0
66.27562189102173,,,76.0,-7.0,2416.0,1.0,1.0,-3.0
66.32045888900757,,,265.0,2.0,2404.0,1.0,-1.0,-4.0
66.3655457496643,,,261.0,-38.0,2332.0,2.0,-1.0,-4.0
66.41057252883911,,,188.0,-21.0,2248.0,4.0,0.0,-3.0
66.45558571815491,,,329.0,-27.0,2298.0,2.0,-1.0,-4.0
66.5173761844635,,,250.0,-97.0,2240.0,2.0,1.0,-3.0
66.56220936775208,,,242.0,-1.0,2386.0,2.0,0.0,-2.0
66.60716414451599,,,211.0,11.0,2351.0,2.0,-1.0,-1.0
66.65233135223389,,,39.0,87.0,2248.0,3.0,1.0,5.0
66.69732332229614,,,352.0,-36.0,2215.0,2.0,0.0,2.0
66.74248313903809,,,419.0,-94.0,2251.0,0.0,-1.0,-6.0
66.78744196891785,,,260.0,-10.0,2327.0,0.0,-1.0,-5.0
66.83258056640625,,,296.0,-32.0,2220.0,-1.0,-1.0,-4.0
66.87751865386963,,,219.0,-11.0,2235.0,0.0,-1.0,-8.0
66.92273473739624,,,370.0,-81.0,2302.0,-2.0,-3.0,-12.0
66.96755981445312,,,215.0,-31.0,2207.0,-4.0,-1.0,-3.0
67.01269030570984,,,80.0,-65.0,2118.0,-3.0,2.0,2.0
67.05774784088135,,,240.0,-97.0,2153.0,-2.0,1.0,-4.0
67.1029589176178,,,339.0,-88.0,2350.0,0.0,-1.0,-8.0
67.14789319038391,,,283.0,31.0,2402.0,-1.0,-1.0,-3.0
67.19301533699036,,,191.0,69.0,2388.0,2.0,-1.0,0.0
67.23793387413025,,,232.0,58.0,2306.0,2.0,-2.0,3.0
67.27899932861328,,,198.0,-7.0,2196.0,3.0,-1.0,3.0
67.32397222518921,,,212.0,-74.0,2132.0,2.0,0.0,3.0
67.36902785301208,,,211.0,-106.0,2178.0,0.0,-1.0,2.0
67.41413426399231,,,6.0,-67.0,2341.0,-2.0,-2.0,2.0
67.45930314064026,,,-31.0,-66.0,2423.0,-1.0,-2.0,8.0
67.50425601005554,,,-30.0,14.0,2261.0,1.0,-1.0,7.0
67.54939675331116,,,-73.0,16.0,2309.0,2.0,-1.0,6.0
67.5986430644989,,,-76.0,32.0,2316.0,4.0,0.0,6.0
67.63940834999084,,,-44.0,-17.0,2336.0,4.0,1.0,7.0
67.68434357643127,,,30.0,55.0,2242.0,4.0,1.0,8.0
67.72939157485962,,,24.0,-1.0,2212.0,4.0,1.0,3.0
67.7744779586792,,,-118.0,17.0,2253.0,5.0,2.0,6.0
67.8197283744812,,,-30.0,24.0,2197.0,1.0,2.0,7.0
67.86468482017517,,,-121.0,12.0,2269.0,1.0,2.0,10.0
67.9098162651062,,,-113.0,-120.0,2248.0,1.0,3.0,7.0
67.95476269721985,,,-99.0,-127.0,2278.0,1.0,2.0,2.0
67.99981570243835,,,-201.0,-146.0,2381.0,2.0,1.0,3.0
68.04496741294861,,,-239.0,-223.0,2441.0,3.0,1.0,0.0
68.08980631828308,,,-301.0,-184.0,2512.0,4.0,1.0,1.0
68.13494110107422,,,-136.0,-180.0,2506.0,4.0,-1.0,1.0
68.18010091781616,,,-252.0,-64.0,2457.0,7.0,-2.0,4.0
68.22518372535706,,,-97.0,-281.0,2375.0,8.0,-3.0,6.0
68.27026462554932,,,12.0,-463.0,2300.0,2.0,-5.0,6.0
68.33153867721558,,,-26.0,-406.0,2194.0,1.0,-6.0,5.0
68.36031579971313,,,249.0,-599.0,1952.0,-7.0,-3.0,13.0
68.40524888038635,,,175.0,-513.0,2186.0,-15.0,-4.0,20.0
68.45449948310852,,,-425.0,-381.0,2023.0,-18.0,2.0,41.0
68.50370717048645,,,-1052.0,-513.0,2010.0,-22.0,13.0,66.0
68.54049229621887,,,-1193.0,-361.0,1674.0,-22.0,21.0,75.0
68.58578586578369,,,-1405.0,103.0,1011.0,-17.0,31.0,76.0
68.63066530227661,,,-1727.0,57.0,1695.0,-5.0,35.0,65.0
68.67572236061096,,,-1501.0,229.0,1642.0,2.0,45.0,67.0
68.720632314682,,,-1170.0,757.0,2559.0,6.0,38.0,59.0
68.76572751998901,,,-730.0,1163.0,2153.0,-1.0,36.0,51.0
68.81077218055725,,,-1336.0,1526.0,2678.0,-9.0,26.0,41.0
68.85587620735168,,,-2123.0,1672.0,2320.0,-7.0,18.0,30.0
68.90090990066528,,,-2899.0,1644.0,1955.0,-6.0,14.0,34.0
68.94595122337341,,,-3292.0,1604.0,1550.0,1.0,8.0,46.0
68.99516820907593,,,-3370.0,1067.0,1538.0,6.0,12.0,46.0
69.03618907928467,,,-3533.0,457.0,2043.0,9.0,10.0,53.0
69.08131074905396,,,-3498.0,230.0,1931.0,4.0,15.0,68.0
69.12609386444092,,,-3424.0,252.0,1798.0,4.0,14.0,66.0
69.17118096351624,,,-3622.0,111.0,1324.0,6.0,14.0,64.0
69.21619701385498,,,-3822.0,-102.0,871.0,14.0,13.0,80.0
69.26134133338928,,,-3499.0,-393.0,1105.0,23.0,9.0,92.0
69.30651068687439,,,-3103.0,-293.0,1256.0,26.0,7.0,84.0
69.35150814056396,,,-3011.0,-265.0,1320.0,15.0,-2.0,70.0
69.3964273929596,,,-3183.0,-790.0,916.0,10.0,-11.0,57.0
69.44149875640869,,,-2697.0,-1716.0,906.0,16.0,-10.0,66.0
69.48673129081726,,,-2163.0,-1424.0,687.0,19.0,-4.0,72.0
69.5317006111145,,,-2145.0,-738.0,862.0,17.0,-9.0,57.0
69.57681894302368,,,-2252.0,-537.0,804.0,11.0,-13.0,40.0
69.62188053131104,,,-2260.0,-1088.0,697.0,6.0,-9.0,33.0
69.68325471878052,,,-2290.0,-1507.0,490.0,7.0,-6.0,46.0
69.72412467002869,,,-2268.0,-1448.0,692.0,8.0,0.0,53.0
69.76914191246033,,,-1950.0,-1062.0,1145.0,11.0,3.0,39.0
69.81422305107117,,,-1645.0,-776.0,1639.0,12.0,7.0,23.0
69.86354064941406,,,-1483.0,-341.0,1686.0,9.0,10.0,4.0
69.90449213981628,,,-1797.0,-177.0,1207.0,5.0,12.0,-11.0
69.94951844215393,,,-2151.0,-556.0,703.0,5.0,12.0,-20.0
69.99448680877686,,,-2322.0,-1058.0,394.0,5.0,13.0,-15.0
70.03952312469482,,,-2285.0,-1710.0,445.0,2.0,5.0,1.0
70.08457946777344,,,-1952.0,-2600.0,847.0,6.0,4.0,41.0
70.12971305847168,,,-1466.0,-2188.0,1351.0,16.0,8.0,84.0
70.17478609085083,,,-1733.0,-695.0,1359.0,18.0,6.0,79.0
70.21986651420593,,,-1820.0,392.0,1285.0,10.0,-1.0,31.0
70.26478672027588,,,-1220.0,326.0,1532.0,7.0,-10.0,-5.0
70.30991315841675,,,-1010.0,-242.0,1402.0,-3.0,-12.0,-13.0
70.35494995117188,,,-1284.0,-931.0,937.0,-11.0,-6.0,-4.0
70.39995837211609,,,-1295.0,-1225.0,592.0,-10.0,-8.0,-2.0
70.44510340690613,,,-1061.0,-1253.0,524.0,-16.0,-12.0,-11.0
70.49005436897278,,,-787.0,-1632.0,546.0,-14.0,-10.0,-11.0
70.53520369529724,,,-629.0,-1550.0,641.0,-14.0,-5.0,-6.0
70.58031392097473,,,-621.0,-1342.0,887.0,-14.0,-2.0,-7.0
70.62525033950806,,,-766.0,-1015.0,963.0,-18.0,-4.0,-17.0
70.67042827606201,,,-620.0,-1118.0,1019.0,-18.0,-3.0,-25.0
70.71547198295593,,,-313.0,-1194.0,1203.0,-15.0,-5.0,-31.0
70.76041555404663,,,-142.0,-1196.0,1241.0,-16.0,-5.0,-38.0
70.80545496940613,,,-195.0,-1209.0,1425.0,-11.0,-6.0,-47.0
70.85056781768799,,,-685.0,-1091.0,1415.0,-16.0,-3.0,-53.0
70.89564561843872,,,-1186.0,-1376.0,1678.0,-13.0,-1.0,-47.0
70.94070982933044,,,-1879.0,-1628.0,1711.0,-9.0,0.0,-7.0
70.98612427711487,,,-2129.0,-747.0,1069.0,-2.0,0.0,25.0
71.03075885772705,,,-1669.0,49.0,617.0,6.0,-2.0,23.0
71.07597661018372,,,-1339.0,865.0,593.0,12.0,-1.0,9.0
71.12090420722961,,,-1296.0,1074.0,1132.0,16.0,4.0,-8.0
71.1658706665039,,,-1477.0,653.0,1702.0,14.0,4.0,-8.0
71.21089935302734,,,-1659.0,103.0,1957.0,10.0,5.0,-2.0
71.25599908828735,,,-1444.0,-257.0,1947.0,7.0,1.0,1.0
71.30120134353638,,,-1260.0,-433.0,1681.0,2.0,1.0,3.0
71.34612536430359,,,-1147.0,-431.0,1322.0,4.0,1.0,6.0
71.39122772216797,,,-982.0,-334.0,1214.0,5.0,3.0,7.0
71.43628096580505,,,-868.0,-230.0,1414.0,4.0,4.0,5.0
71.48129272460938,,,-928.0,-373.0,1575.0,-1.0,2.0,6.0
71.52632904052734,,,-920.0,-670.0,1571.0,-7.0,0.0,9.0
71.57136845588684,,,-889.0,-1007.0,1434.0,-8.0,-1.0,14.0
71.61650609970093,,,-860.0,-1104.0,1231.0,-6.0,1.0,22.0
71.66150188446045,,,-837.0,-1057.0,1093.0,-7.0,3.0,25.0
71.7066957950592,,,-883.0,-1008.0,986.0,-9.0,1.0,26.0
71.75169801712036,,,-777.0,-1073.0,803.0,-5.0,2.0,24.0
71.79670858383179,,,-580.0,-1000.0,907.0,-2.0,4.0,24.0
71.8417239189148,,,-311.0,-915.0,1402.0,0.0,6.0,23.0
71.88681483268738,,,-6.0,-418.0,1732.0,2.0,4.0,17.0
71.93198347091675,,,-42.0,-151.0,1938.0,3.0,3.0,6.0
71.9770336151123,,,130.0,74.0,1879.0,9.0,-4.0,-1.0
72.02206921577454,,,-310.0,171.0,1362.0,6.0,-2.0,-10.0
72.06711292266846,,,-612.0,-364.0,908.0,9.0,-1.0,-10.0
72.11214995384216,,,-612.0,-659.0,852.0,9.0,-2.0,1.0
72.15706443786621,,,-367.0,-672.0,1032.0,14.0,0.0,17.0
72.20210313796997,,,-228.0,-264.0,1309.0,9.0,-2.0,23.0
72.24722409248352,,,23.0,149.0,1382.0,15.0,-1.0,28.0
72.29222631454468,,,-14.0,1075.0,1510.0,8.0,-3.0,11.0
72.3374707698822,,,-20.0,800.0,1360.0,2.0,-2.0,-15.0
72.38248801231384,,,-45.0,453.0,963.0,-2.0,-2.0,-21.0
72.42759490013123,,,95.0,155.0,1038.0,-6.0,0.0,-19.0
72.47258281707764,,,7.0,76.0,978.0,-11.0,3.0,-21.0
72.51768851280212,,,66.0,-47.0,884.0,-12.0,1.0,-28.0
72.5626757144928,,,237.0,-219.0,703.0,-16.0,0.0,-37.0
72.60770058631897,,,385.0,-386.0,722.0,-18.0,-1.0,-40.0
72.6526403427124,,,475.0,-488.0,804.0,-19.0,0.0,-42.0
72.6978268623352,,,517.0,-595.0,1078.0,-18.0,0.0,-40.0
72.74292469024658,,,430.0,-486.0,1147.0,-16.0,2.0,-37.0
72.78806161880493,,,427.0,-285.0,1094.0,-10.0,2.0,-37.0
72.83304953575134,,,625.0,100.0,1180.0,-9.0,0.0,-45.0
72.87806248664856,,,772.0,121.0,1675.0,-6.0,-4.0,-57.0
72.92300820350647,,,342.0,228.0,1906.0,-12.0,3.0,-58.0
72.96816492080688,,,-319.0,153.0,2176.0,-10.0,2.0,-44.0
73.01323342323303,,,-1125.0,316.0,1973.0,-10.0,4.0,-21.0
73.05836987495422,,,-1386.0,589.0,1278.0,-2.0,1.0,5.0
73.10344219207764,,,-965.0,1395.0,589.0,5.0,-2.0,12.0
73.14844918251038,,,-575.0,1863.0,738.0,15.0,1.0,1.0
73.19347620010376,,,-160.0,2136.0,1364.0,13.0,3.0,-4.0
73.23855066299438,,,-237.0,2028.0,1474.0,9.0,0.0,-11.0
73.29581689834595,,,-73.0,1696.0,1490.0,7.0,-3.0,-18.0
73.3409264087677,,,100.0,1403.0,1748.0,3.0,1.0,-25.0
73.38593864440918,,,-46.0,1105.0,1920.0,0.0,3.0,-19.0
73.43100047111511,,,-270.0,1011.0,1621.0,-4.0,3.0,-7.0
73.47608971595764,,,-184.0,1018.0,1461.0,-5.0,0.0,-6.0
73.52108001708984,,,-127.0,965.0,1395.0,-9.0,2.0,-12.0
73.56611180305481,,,-350.0,622.0,1440.0,-12.0,1.0,-12.0
73.61119031906128,,,-580.0,312.0,1505.0,-13.0,1.0,-4.0
73.65614366531372,,,-695.0,45.0,1621.0,-8.0,3.0,9.0
73.7016077041626,,,-567.0,283.0,1514.0,-8.0,5.0,21.0
73.74640011787415,,,-546.0,469.0,1275.0,-8.0,3.0,18.0
73.7914502620697,,,-295.0,469.0,1214.0,-7.0,1.0,11.0
73.8364109992981,,,21.0,-15.0,1572.0,-2.0,1.0,10.0
73.88152480125427,,,247.0,151.0,1578.0,3.0,2.0,17.0
73.92644500732422,,,-30.0,391.0,1492.0,6.0,3.0,22.0
73.97163844108582,,,22.0,706.0,1323.0,7.0,-1.0,22.0
74.01668500900269,,,169.0,645.0,1217.0,9.0,0.0,18.0
74.06170296669006,,,270.0,487.0,1141.0,12.0,0.0,22.0
74.10675406455994,,,501.0,708.0,794.0,16.0,2.0,28.0
74.15217971801758,,,869.0,1174.0,685.0,21.0,4.0,19.0
74.19692587852478,,,1249.0,1658.0,999.0,19.0,4.0,-4.0
74.24188232421875,,,1123.0,1489.0,1496.0,11.0,5.0,-19.0
74.28691411018372,,,562.0,1238.0,1554.0,3.0,6.0,-11.0
74.33206558227539,,,459.0,999.0,1420.0,-5.0,3.0,-14.0
74.37711334228516,,,716.0,465.0,1401.0,-12.0,1.0,-26.0
74.42215323448181,,,699.0,133.0,1441.0,-16.0,3.0,-20.0
74.46733474731445,,,840.0,536.0,1404.0,-14.0,4.0,-19.0
74.51239800453186,,,1208.0,903.0,1507.0,-21.0,2.0,-36.0
74.55725598335266,,,998.0,738.0,1261.0,-30.0,-1.0,-51.0
74.60232925415039,,,836.0,301.0,968.0,-32.0,-2.0,-59.0
74.64742064476013,,,872.0,-112.0,814.0,-32.0,-6.0,-61.0
74.69245600700378,,,776.0,-254.0,496.0,-31.0,-4.0,-58.0
74.73751950263977,,,880.0,-287.0,375.0,-26.0,-1.0,-59.0
74.78271555900574,,,1284.0,-226.0,285.0,-20.0,1.0,-67.0
74.82772302627563,,,1583.0,-319.0,476.0,-17.0,1.0,-73.0
74.87281537055969,,,1817.0,-492.0,1110.0,-9.0,7.0,-72.0
74.91781735420227,,,1982.0,357.0,1819.0,-19.0,9.0,-77.0
74.96272921562195,,,1382.0,1314.0,1727.0,-19.0,9.0,-74.0
75.00788450241089,,,1369.0,1160.0,1609.0,-17.0,6.0,-68.0
75.0530436038971,,,1064.0,1133.0,1352.0,-22.0,11.0,-56.0
75.0980269908905,,,710.0,1386.0,836.0,-21.0,18.0,-51.0
75.14318323135376,,,624.0,1806.0,522.0,-18.0,17.0,-42.0
75.18818759918213,,,732.0,1952.0,484.0,-9.0,21.0,-28.0
75.23322105407715,,,1500.0,2049.0,768.0,-5.0,22.0,-27.0
75.27828812599182,,,2020.0,2007.0,1013.0,-5.0,18.0,-38.0
75.32320952415466,,,2333.0,1631.0,1092.0,-6.0,16.0,-48.0
75.36826372146606,,,2404.0,1283.0,1228.0,-7.0,12.0,-56.0
75.41336297988892,,,2351.0,1105.0,1386.0,-8.0,12.0,-63.0
75.45837235450745,,,1917.0,1253.0,1667.0,-12.0,11.0,-58.0
75.50359463691711,,,1616.0,1574.0,1541.0,-14.0,10.0,-45.0
75.54860591888428,,,1486.0,1716.0,1512.0,-12.0,9.0,-35.0
75.59351134300232,,,1559.0,1562.0,1461.0,-8.0,9.0,-25.0
75.63861417770386,,,1921.0,1328.0,1420.0,-8.0,10.0,-17.0
75.68380284309387,,,2374.0,1260.0,1261.0,-8.0,6.0,-21.0
75.7287175655365,,,2540.0,1223.0,1300.0,-8.0,2.0,-24.0
75.77390813827515,,,2543.0,1184.0,1473.0,-9.0,1.0,-24.0
75.81881213188171,,,2493.0,1309.0,1496.0,-10.0,-1.0,-26.0
75.86387324333191,,,2100.0,1483.0,1472.0,-12.0,-2.0,-24.0
75.9090666770935,,,1658.0,1660.0,1357.0,-11.0,-3.0,-12.0
75.9499146938324,,,1446.0,1720.0,1145.0,-9.0,-1.0,3.0
75.99501276016235,,,1427.0,1526.0,1067.0,-6.0,-1.0,16.0
76.03998303413391,,,1614.0,1341.0,989.0,-4.0,1.0,18.0
76.08508133888245,,,1507.0,1292.0,1035.0,-1.0,2.0,23.0
76.13007998466492,,,1420.0,855.0,1090.0,8.0,2.0,28.0
76.1752917766571,,,1799.0,584.0,1004.0,7.0,6.0,27.0
76.22016549110413,,,1910.0,505.0,1006.0,15.0,6.0,19.0
76.26529836654663,,,2318.0,253.0,1055.0,14.0,4.0,11.0
76.3105103969574,,,2040.0,128.0,1233.0,15.0,7.0,-4.0
76.35532808303833,,,1848.0,59.0,1513.0,15.0,7.0,-8.0
76.40455937385559,,,1727.0,350.0,1461.0,12.0,10.0,-6.0
76.44540452957153,,,1673.0,344.0,1380.0,11.0,7.0,-2.0
76.4905731678009,,,1796.0,265.0,1043.0,8.0,5.0,3.0
76.535640001297,,,1768.0,169.0,941.0,4.0,3.0,4.0
76.58078527450562,,,1322.0,-100.0,1108.0,3.0,0.0,9.0
76.62587594985962,,,1189.0,-161.0,1195.0,2.0,4.0,14.0
76.67087936401367,,,1236.0,-65.0,1092.0,4.0,2.0,15.0
76.71593856811523,,,1290.0,-1.0,820.0,3.0,-2.0,12.0
76.76091361045837,,,1052.0,-138.0,755.0,0.0,-1.0,10.0
76.8058409690857,,,919.0,-315.0,688.0,3.0,-2.0,9.0
76.85099959373474,,,1106.0,-469.0,755.0,5.0,0.0,2.0
76.8960132598877,,,1299.0,-427.0,925.0,2.0,2.0,-12.0
76.94121956825256,,,1187.0,-199.0,1023.0,-5.0,1.0,-23.0
76.98624420166016,,,660.0,-87.0,1129.0,-10.0,-2.0,-24.0
77.03142023086548,,,93.0,104.0,1089.0,-15.0,-2.0,-12.0
77.07644009590149,,,-234.0,151.0,1086.0,-13.0,-1.0,5.0
77.12142610549927,,,-49.0,-93.0,1146.0,-9.0,1.0,11.0
77.1663408279419,,,404.0,-76.0,1149.0,-13.0,0.0,3.0
77.2113687992096,,,330.0,72.0,1306.0,-13.0,-2.0,-2.0
77.25648379325867,,,297.0,177.0,1235.0,-12.0,-4.0,2.0
77.30199813842773,,,264.0,274.0,1040.0,-14.0,-6.0,-2.0
77.34676933288574,,,-152.0,150.0,1099.0,-10.0,-9.0,-5.0
77.39162373542786,,,16.0,-17.0,1120.0,-4.0,-7.0,-8.0
77.43682980537415,,,120.0,171.0,1311.0,0.0,-5.0,-8.0
77.48187756538391,,,451.0,263.0,1383.0,3.0,-7.0,-4.0
77.52683424949646,,,551.0,512.0,1250.0,2.0,-8.0,-7.0
77.57190155982971,,,526.0,626.0,1149.0,4.0,-11.0,-2.0
77.6169273853302,,,653.0,387.0,1007.0,8.0,-12.0,6.0
77.66193795204163,,,771.0,51.0,980.0,10.0,-9.0,7.0
77.70713400840759,,,1113.0,-135.0,1074.0,7.0,-9.0,-1.0
77.75203275680542,,,1232.0,-212.0,1125.0,9.0,-8.0,-7.0
77.79721117019653,,,1269.0,-202.0,1311.0,6.0,-6.0,-11.0
77.84214377403259,,,1251.0,42.0,1455.0,3.0,-6.0,-12.0
77.88723182678223,,,1183.0,57.0,1473.0,1.0,-5.0,-13.0
77.93231344223022,,,1002.0,70.0,1555.0,0.0,-4.0,-12.0
77.97745203971863,,,1036.0,57.0,1582.0,0.0,-4.0,-14.0
78.02248978614807,,,931.0,-61.0,1570.0,0.0,-5.0,-17.0
78.06751465797424,,,789.0,-140.0,1655.0,-3.0,-4.0,-19.0
78.11251592636108,,,607.0,-18.0,1774.0,-4.0,-4.0,-15.0
78.15772128105164,,,573.0,62.0,1664.0,-1.0,-4.0,-9.0
78.20263814926147,,,917.0,-44.0,1445.0,-2.0,-3.0,-8.0
78.24776721000671,,,992.0,-173.0,1424.0,-1.0,-1.0,-13.0
78.29281234741211,,,877.0,-94.0,1420.0,-4.0,1.0,-15.0
78.33787298202515,,,627.0,-18.0,1583.0,-1.0,2.0,-12.0
78.38303112983704,,,541.0,-78.0,1677.0,-4.0,5.0,-5.0
78.4280366897583,,,681.0,-196.0,1651.0,-3.0,4.0,-2.0
78.47299599647522,,,926.0,-325.0,1514.0,-8.0,4.0,-10.0
78.51835608482361,,,671.0,-416.0,1563.0,-10.0,2.0,-13.0
78.56296896934509,,,531.0,-319.0,1644.0,-13.0,3.0,-10.0
78.60807204246521,,,527.0,-213.0,1486.0,-13.0,3.0,-7.0
78.6532518863678,,,445.0,-300.0,1499.0,-13.0,3.0,-8.0
78.6982753276825,,,577.0,-333.0,1441.0,-12.0,5.0,-6.0
78.74334955215454,,,731.0,-362.0,1447.0,-12.0,5.0,-11.0
78.78847050666809,,,726.0,-460.0,1460.0,-12.0,4.0,-16.0
78.83357286453247,,,654.0,-498.0,1426.0,-11.0,5.0,-20.0
78.87842178344727,,,600.0,-348.0,1406.0,-10.0,5.0,-20.0
78.92353391647339,,,605.0,-440.0,1475.0,-8.0,6.0,-19.0
78.96849775314331,,,705.0,-399.0,1442.0,-8.0,6.0,-20.0
79.01355195045471,,,770.0,-451.0,1477.0,-6.0,4.0,-21.0
79.05865263938904,,,787.0,-480.0,1433.0,-7.0,4.0,-21.0
79.10368776321411,,,740.0,-325.0,1434.0,-6.0,4.0,-22.0
79.14884352684021,,,662.0,-291.0,1655.0,-9.0,5.0,-23.0
79.19381523132324,,,497.0,104.0,1742.0,-8.0,4.0,-13.0
79.23888349533081,,,795.0,97.0,1524.0,-9.0,4.0,-3.0
79.28399586677551,,,821.0,-144.0,1514.0,-6.0,3.0,-7.0
79.32900953292847,,,936.0,-269.0,1583.0,-5.0,3.0,-6.0
79.37408804893494,,,1044.0,-201.0,1679.0,-3.0,2.0,-10.0
79.41926646232605,,,921.0,-152.0,1708.0,-5.0,0.0,-8.0
79.46427822113037,,,896.0,-63.0,1555.0,-2.0,1.0,-8.0
79.5093297958374,,,780.0,-128.0,1561.0,-2.0,-1.0,-6.0
79.55021643638611,,,902.0,-28.0,1506.0,-2.0,2.0,-6.0
79.59522008895874,,,757.0,-130.0,1665.0,0.0,-1.0,-4.0
79.64031863212585,,,712.0,-175.0,1683.0,0.0,1.0,-1.0
79.68527102470398,,,789.0,-232.0,1471.0,3.0,-1.0,3.0
79.7303478717804,,,869.0,-511.0,1390.0,4.0,0.0,0.0
79.775461435318,,,850.0,-563.0,1243.0,5.0,0.0,-6.0
79.82054281234741,,,846.0,-626.0,1229.0,6.0,3.0,-11.0
79.86561179161072,,,689.0,-505.0,1373.0,6.0,5.0,-12.0
79.91073346138,,,809.0,-651.0,1311.0,7.0,7.0,-9.0
79.95573306083679,,,764.0,-714.0,1407.0,4.0,8.0,-14.0
80.00078678131104,,,600.0,-572.0,1521.0,-2.0,6.0,-7.0
80.04571342468262,,,506.0,-538.0,1385.0,-1.0,7.0,4.0
80.09092283248901,,,641.0,-808.0,1189.0,-3.0,6.0,3.0
80.13590478897095,,,833.0,-1095.0,804.0,-5.0,5.0,-8.0
80.18098950386047,,,293.0,-1174.0,1154.0,-9.0,7.0,-13.0
80.22604250907898,,,62.0,-968.0,1242.0,-16.0,12.0,-17.0
80.27099823951721,,,-284.0,-916.0,1356.0,-14.0,9.0,-14.0
80.31627702713013,,,-357.0,-1159.0,1456.0,0.0,15.0,-15.0
80.36117196083069,,,467.0,-1634.0,1083.0,-1.0,20.0,-33.0
80.40625643730164,,,865.0,-1446.0,783.0,-5.0,15.0,-54.0
80.45126485824585,,,763.0,-1152.0,528.0,-13.0,11.0,-59.0
80.49650692939758,,,351.0,-618.0,948.0,-8.0,13.0,-47.0
80.54145622253418,,,543.0,-749.0,954.0,-4.0,15.0,-36.0
80.58653473854065,,,750.0,-1047.0,1037.0,-8.0,16.0,-41.0
80.63157558441162,,,683.0,-1127.0,1188.0,-11.0,10.0,-47.0
80.67648267745972,,,675.0,-936.0,1183.0,-14.0,9.0,-48.0
80.72151923179626,,,609.0,-720.0,1227.0,-13.0,9.0,-39.0
80.76662540435791,,,523.0,-973.0,1301.0,-12.0,8.0,-41.0
80.8117458820343,,,463.0,-1311.0,1290.0,-12.0,4.0,-49.0
80.85688042640686,,,500.0,-1351.0,1080.0,-14.0,0.0,-52.0
80.90220284461975,,,408.0,-1366.0,1081.0,-9.0,-4.0,-57.0
80.9469358921051,,,151.0,-1339.0,1674.0,-4.0,-2.0,-61.0
80.99206233024597,,,717.0,-1251.0,1614.0,-11.0,-1.0,-55.0
81.03700137138367,,,1228.0,-983.0,1471.0,-11.0,-6.0,-41.0
81.08202791213989,,,1145.0,-1017.0,1064.0,-9.0,-6.0,-20.0
81.12717890739441,,,870.0,-1419.0,825.0,0.0,-7.0,-4.0
81.17630648612976,,,433.0,-2421.0,717.0,7.0,-5.0,0.0
81.21743822097778,,,376.0,-3141.0,497.0,12.0,-2.0,-21.0
81.2623016834259,,,603.0,-3275.0,605.0,7.0,-2.0,-43.0
81.30734753608704,,,1189.0,-2608.0,1079.0,1.0,-4.0,-31.0
81.35248517990112,,,1370.0,-1958.0,1837.0,-3.0,-3.0,-3.0
81.39742064476013,,,976.0,-1640.0,2323.0,-5.0,-3.0,11.0
81.44260120391846,,,1036.0,-1030.0,2150.0,-6.0,-6.0,21.0
81.48749256134033,,,1236.0,-656.0,1598.0,-7.0,-8.0,39.0
81.53256583213806,,,1106.0,-487.0,1282.0,0.0,-10.0,53.0
81.57773470878601,,,763.0,-684.0,1493.0,3.0,-10.0,64.0
81.62278532981873,,,512.0,-844.0,1878.0,6.0,-11.0,70.0
81.66778111457825,,,580.0,-1167.0,1822.0,0.0,-16.0,66.0
81.7129054069519,,,380.0,-852.0,1241.0,3.0,-22.0,52.0
81.7579128742218,,,-5.0,-692.0,857.0,10.0,-20.0,47.0
81.80291438102722,,,-31.0,-795.0,1011.0,16.0,-16.0,40.0
81.84793257713318,,,89.0,-918.0,1488.0,18.0,-12.0,25.0
81.89299249649048,,,220.0,-639.0,1578.0,17.0,-11.0,19.0
81.93825888633728,,,197.0,-409.0,1480.0,15.0,-10.0,19.0
81.98331212997437,,,68.0,-292.0,1421.0,17.0,-5.0,20.0
82.03229999542236,,,237.0,-493.0,1481.0,16.0,-2.0,15.0
82.07323670387268,,,452.0,-370.0,1423.0,12.0,-1.0,10.0
82.13055372238159,,,459.0,-103.0,1370.0,10.0,0.0,8.0
82.17566251754761,,,477.0,165.0,1400.0,9.0,4.0,10.0
82.22070789337158,,,526.0,233.0,1530.0,11.0,7.0,11.0
82.26576948165894,,,603.0,112.0,1733.0,11.0,9.0,7.0
82.31093382835388,,,653.0,91.0,2011.0,11.0,8.0,2.0
82.3559455871582,,,471.0,51.0,2211.0,8.0,5.0,-3.0
82.40494847297668,,,292.0,184.0,2081.0,0.0,2.0,-9.0
82.44594240188599,,,-198.0,315.0,1896.0,4.0,0.0,-6.0
82.49110412597656,,,166.0,-18.0,1319.0,-2.0,0.0,-7.0
82.5362114906311,,,275.0,241.0,1094.0,-7.0,-3.0,-14.0
82.58127093315125,,,-200.0,365.0,1268.0,-10.0,-6.0,-23.0
82.6264283657074,,,-398.0,957.0,1181.0,-17.0,-2.0,-21.0
82.67134547233582,,,-478.0,1776.0,910.0,-13.0,-1.0,4.0
82.71617484092712,,,-665.0,1456.0,690.0,-9.0,1.0,18.0
82.76129722595215,,,-1240.0,786.0,1077.0,-1.0,1.0,14.0
82.80636692047119,,,-1199.0,231.0,1348.0,-1.0,8.0,1.0
82.85142707824707,,,-626.0,259.0,1475.0,-3.0,8.0,-10.0
82.89659380912781,,,-323.0,579.0,1467.0,-9.0,4.0,-14.0
82.94168281555176,,,-323.0,1027.0,1160.0,-10.0,1.0,0.0
82.986656665802,,,-598.0,986.0,909.0,-4.0,1.0,14.0
83.03172063827515,,,-769.0,423.0,1132.0,5.0,4.0,11.0
83.07675242424011,,,-427.0,-81.0,1468.0,5.0,7.0,-5.0
83.12180423736572,,,-1.0,-57.0,1639.0,0.0,3.0,-13.0
83.16680932044983,,,95.0,162.0,1513.0,-2.0,0.0,-12.0
83.21202826499939,,,-108.0,289.0,1343.0,0.0,-1.0,-7.0
83.25697731971741,,,-317.0,47.0,1223.0,2.0,1.0,-14.0
83.3062391281128,,,-490.0,-194.0,1502.0,5.0,1.0,-29.0
83.34720587730408,,,-130.0,-209.0,1477.0,3.0,2.0,-38.0
83.3922209739685,,,76.0,-13.0,1636.0,5.0,0.0,-32.0
83.43728113174438,,,281.0,-146.0,1673.0,1.0,-2.0,-23.0
83.48214650154114,,,497.0,-107.0,1580.0,0.0,-4.0,-15.0
83.52722907066345,,,370.0,-356.0,1475.0,2.0,-6.0,-9.0
83.57227444648743,,,487.0,-668.0,1073.0,0.0,-6.0,-4.0
83.61756706237793,,,686.0,-805.0,751.0,2.0,-8.0,-6.0
83.67893266677856,,,758.0,-773.0,892.0,2.0,-6.0,-10.0
83.7238998413086,,,752.0,-381.0,1363.0,4.0,-3.0,-1.0
83.76899695396423,,,561.0,-424.0,1673.0,6.0,-1.0,10.0
83.81398749351501,,,362.0,-660.0,1776.0,1.0,-1.0,10.0
83.85918378829956,,,192.0,-743.0,1731.0,3.0,-1.0,3.0
83.90424680709839,,,150.0,-700.0,1656.0,0.0,1.0,-2.0
83.94917941093445,,,415.0,-438.0,1444.0,-3.0,2.0,-2.0
83.9942557811737,,,389.0,-277.0,1391.0,0.0,1.0,0.0
84.03926229476929,,,192.0,-445.0,1592.0,1.0,4.0,5.0
84.08432269096375,,,360.0,-550.0,1892.0,-5.0,5.0,2.0
84.1294322013855,,,609.0,-121.0,1928.0,-10.0,-3.0,-4.0
84.17444324493408,,,432.0,582.0,1677.0,-9.0,-6.0,6.0
84.21954464912415,,,163.0,867.0,1415.0,-7.0,-4.0,15.0
84.26456499099731,,,27.0,909.0,1353.0,-7.0,-2.0,14.0
84.30970573425293,,,118.0,914.0,1388.0,-9.0,-2.0,13.0
84.35470032691956,,,169.0,1293.0,1323.0,-8.0,-1.0,22.0
84.39965224266052,,,1.0,1316.0,1167.0,-4.0,-2.0,36.0
84.44466233253479,,,-147.0,1023.0,1096.0,0.0,-1.0,37.0
84.48982763290405,,,-321.0,902.0,1301.0,-1.0,2.0,31.0
84.5307092666626,,,-523.0,952.0,1704.0,7.0,2.0,29.0
84.6004991531372,,,-199.0,934.0,1650.0,2.0,-1.0,39.0
84.74787974357605,,,-250.0,974.0,1224.0,8.0,-1.0,48.0
84.78890252113342,,,-372.0,202.0,1265.0,16.0,-2.0,33.0
84.83386993408203,,,-357.0,-35.0,1596.0,19.0,0.0,24.0
84.89118099212646,,,-80.0,195.0,1547.0,14.0,0.0,21.0
84.93644976615906,,,-92.0,494.0,1168.0,9.0,-5.0,28.0
84.9858136177063,,,-243.0,434.0,635.0,9.0,-6.0,34.0
85.04283809661865,,,-759.0,287.0,580.0,11.0,-5.0,35.0
85.1615800857544,,,-848.0,105.0,811.0,13.0,-4.0,39.0
85.19426965713501,,,-346.0,402.0,562.0,-10.0,-4.0,-26.0
85.23936343193054,,,-596.0,583.0,609.0,-7.0,-1.0,-30.0
85.28435897827148,,,-696.0,627.0,899.0,-2.0,0.0,-33.0
85.32946920394897,,,-527.0,433.0,1122.0,-1.0,-1.0,-35.0
85.37468194961548,,,-564.0,162.0,1470.0,-1.0,-4.0,-43.0
85.41969776153564,,,-694.0,104.0,1615.0,-7.0,-6.0,-52.0
85.46473383903503,,,-509.0,615.0,1518.0,-14.0,-7.0,-50.0
85.50983428955078,,,-760.0,994.0,1773.0,-11.0,-8.0,-38.0
85.55900001525879,,,-395.0,1075.0,1600.0,-15.0,0.0,-18.0
85.59986472129822,,,246.0,1009.0,1261.0,-15.0,-5.0,-6.0
85.64497971534729,,,346.0,617.0,897.0,-10.0,-8.0,1.0
85.68988132476807,,,276.0,211.0,950.0,-9.0,-7.0,-1.0
85.73501801490784,,,294.0,189.0,1342.0,-5.0,-3.0,-3.0
85.78021502494812,,,351.0,312.0,1525.0,-1.0,-1.0,6.0
85.8210518360138,,,596.0,-51.0,1448.0,1.0,-3.0,7.0
85.8661277294159,,,662.0,-326.0,1179.0,7.0,-3.0,2.0
85.91117525100708,,,532.0,-433.0,1220.0,6.0,-4.0,-8.0
85.96034598350525,,,292.0,24.0,1341.0,5.0,-4.0,-5.0
86.00125050544739,,,168.0,184.0,1622.0,5.0,-2.0,5.0
86.04628205299377,,,272.0,106.0,1910.0,6.0,-1.0,9.0
86.09136962890625,,,574.0,-148.0,2028.0,5.0,-2.0,5.0
86.13659501075745,,,749.0,-120.0,1875.0,2.0,-4.0,2.0
86.18142557144165,,,630.0,59.0,1581.0,1.0,-4.0,-4.0
86.22653150558472,,,488.0,297.0,1362.0,3.0,-3.0,-5.0
86.27157926559448,,,297.0,377.0,1404.0,5.0,-1.0,-4.0
86.31652283668518,,,237.0,200.0,1578.0,8.0,1.0,-5.0
86.36163425445557,,,274.0,321.0,1849.0,6.0,4.0,-4.0
86.4067633152008,,,256.0,560.0,2042.0,5.0,2.0,3.0
86.45163869857788,,,287.0,808.0,1908.0,-2.0,1.0,12.0
86.4968376159668,,,234.0,1318.0,1599.0,0.0,1.0,27.0
86.54198098182678,,,105.0,1115.0,1475.0,2.0,4.0,34.0
86.58702969551086,,,49.0,960.0,1523.0,2.0,4.0,30.0
86.63197016716003,,,-231.0,1033.0,1711.0,3.0,5.0,35.0
86.67699575424194,,,-527.0,886.0,1959.0,4.0,3.0,41.0
86.7220447063446,,,-818.0,762.0,2022.0,5.0,3.0,44.0
86.76716566085815,,,-716.0,503.0,1716.0,-1.0,-3.0,51.0
86.81210231781006,,,-575.0,325.0,1016.0,1.0,-10.0,50.0
86.85725736618042,,,-694.0,-55.0,700.0,2.0,-10.0,41.0
86.9022901058197,,,-1001.0,-283.0,898.0,6.0,-7.0,30.0
86.94745230674744,,,-735.0,-164.0,876.0,4.0,-9.0,27.0
86.99248099327087,,,-757.0,32.0,793.0,-2.0,-9.0,30.0
87.03741836547852,,,-960.0,-55.0,844.0,1.0,-12.0,35.0
87.08254146575928,,,-1070.0,-478.0,990.0,7.0,-13.0,38.0
87.12758207321167,,,-889.0,-756.0,1116.0,4.0,-9.0,24.0
87.17273283004761,,,-744.0,-483.0,862.0,0.0,-7.0,6.0
87.21766519546509,,,-854.0,-224.0,741.0,4.0,-4.0,-1.0
87.26285243034363,,,-767.0,-240.0,802.0,6.0,-1.0,-1.0
87.3077666759491,,,-629.0,-326.0,856.0,7.0,0.0,-3.0
87.35285091400146,,,-575.0,-452.0,991.0,6.0,1.0,-14.0
87.3978431224823,,,-688.0,-330.0,1031.0,2.0,-1.0,-25.0
87.4430558681488,,,-874.0,-102.0,991.0,2.0,-3.0,-27.0
87.48797345161438,,,-820.0,143.0,968.0,3.0,-2.0,-24.0
87.53298616409302,,,-526.0,407.0,1285.0,4.0,-8.0,-22.0
87.57821297645569,,,-569.0,580.0,1418.0,-3.0,-6.0,-17.0
87.62311911582947,,,-606.0,961.0,1235.0,-5.0,-2.0,-11.0
87.66820073127747,,,-301.0,869.0,1234.0,-2.0,-5.0,-19.0
87.71334505081177,,,-150.0,602.0,1141.0,-1.0,-4.0,-32.0
87.7584114074707,,,-200.0,588.0,1462.0,0.0,-2.0,-35.0
87.80333614349365,,,-245.0,815.0,1888.0,-3.0,-1.0,-31.0
87.86488771438599,,,-206.0,1229.0,2044.0,-5.0,-1.0,-23.0
87.9100182056427,,,-228.0,1126.0,2011.0,-5.0,-5.0,-18.0
87.95488929748535,,,-181.0,656.0,1888.0,-5.0,-4.0,-17.0
88.00406885147095,,,-10.0,556.0,1840.0,-7.0,-4.0,-21.0
88.04500317573547,,,52.0,583.0,1720.0,-9.0,-7.0,-22.0
88.09004354476929,,,4.0,461.0,1728.0,-10.0,-7.0,-18.0
88.13559889793396,,,-30.0,366.0,1911.0,-10.0,-6.0,-17.0
88.1802270412445,,,-12.0,430.0,2052.0,-11.0,-3.0,-16.0
88.22116947174072,,,144.0,649.0,2002.0,-11.0,-3.0,-14.0
88.26635193824768,,,152.0,765.0,1581.0,-9.0,-3.0,-8.0
88.31123161315918,,,140.0,710.0,1188.0,-5.0,-1.0,-7.0
88.35641527175903,,,29.0,558.0,1199.0,1.0,3.0,-7.0
88.40161538124084,,,108.0,368.0,1530.0,4.0,6.0,1.0
88.4464340209961,,,441.0,113.0,1737.0,9.0,6.0,8.0
88.49151015281677,,,602.0,-346.0,1821.0,10.0,7.0,8.0
88.53659653663635,,,717.0,-644.0,1819.0,8.0,4.0,1.0
88.58577346801758,,,593.0,-712.0,1578.0,12.0,6.0,-9.0
88.626797914505,,,717.0,-876.0,1725.0,11.0,8.0,-16.0
88.67180681228638,,,735.0,-793.0,1842.0,8.0,8.0,-18.0
88.7168321609497,,,790.0,-648.0,2034.0,3.0,7.0,-16.0
88.76175856590271,,,531.0,-456.0,2200.0,-2.0,5.0,-11.0
88.8068277835846,,,352.0,-278.0,2138.0,-8.0,4.0,-4.0
88.88071703910828,,,256.0,-40.0,1878.0,-12.0,2.0,0.0
88.91333222389221,,,113.0,176.0,1454.0,-14.0,0.0,1.0
88.95835614204407,,,-180.0,421.0,1245.0,-14.0,0.0,2.0
89.00345730781555,,,-428.0,489.0,1298.0,-12.0,2.0,14.0
89.04856991767883,,,-203.0,461.0,1129.0,-12.0,3.0,28.0
89.09352016448975,,,-245.0,242.0,937.0,-4.0,3.0,30.0
89.13877010345459,,,-518.0,39.0,1067.0,-4.0,1.0,25.0
89.18376016616821,,,-715.0,183.0,1222.0,-2.0,4.0,20.0
89.22879791259766,,,-596.0,468.0,1321.0,2.0,5.0,27.0
89.27390432357788,,,-452.0,439.0,1387.0,8.0,7.0,31.0
89.31886911392212,,,-270.0,193.0,1521.0,6.0,7.0,34.0
89.36391043663025,,,-84.0,65.0,1361.0,10.0,5.0,32.0
89.40888094902039,,,-48.0,-283.0,1317.0,15.0,4.0,21.0
89.45408320426941,,,-27.0,-639.0,1389.0,19.0,5.0,8.0
89.54016494750977,,,71.0,-724.0,1535.0,16.0,5.0,-6.0
89.57283878326416,,,202.0,-567.0,1507.0,14.0,3.0,-17.0
89.61787986755371,,,334.0,-338.0,1292.0,11.0,1.0,-21.0
89.66284394264221,,,282.0,-161.0,917.0,10.0,0.0,-18.0
89.70818829536438,,,45.0,-373.0,767.0,7.0,1.0,-19.0
89.75307416915894,,,-190.0,-505.0,822.0,1.0,0.0,-29.0
89.79817605018616,,,-356.0,-466.0,1033.0,0.0,0.0,-39.0
89.84334135055542,,,-212.0,-339.0,1347.0,-4.0,0.0,-40.0
89.90057349205017,,,-40.0,-23.0,1501.0,-11.0,-3.0,-30.0
89.93318057060242,,,-168.0,107.0,1462.0,-11.0,-5.0,-12.0
89.9782202243805,,,-218.0,-14.0,1324.0,-10.0,-5.0,1.0
90.02328729629517,,,-174.0,-197.0,1109.0,-8.0,-6.0,6.0
90.06856894493103,,,-166.0,-566.0,955.0,-4.0,-5.0,3.0
90.11752033233643,,,-115.0,-698.0,957.0,-4.0,-5.0,0.0
90.15847611427307,,,-70.0,-750.0,1042.0,-1.0,-4.0,0.0
90.20355534553528,,,-3.0,-633.0,1199.0,-1.0,-6.0,6.0
90.24856495857239,,,62.0,-608.0,1116.0,2.0,-7.0,19.0
90.29372572898865,,,-40.0,-983.0,954.0,9.0,-6.0,16.0
90.338796377182,,,89.0,-1422.0,1184.0,5.0,-9.0,-4.0
90.38389253616333,,,116.0,-1199.0,1524.0,-1.0,-9.0,-24.0
90.42888188362122,,,192.0,-765.0,1584.0,1.0,-5.0,-29.0
90.47387504577637,,,630.0,-224.0,1685.0,-8.0,-5.0,-23.0
90.51888990402222,,,788.0,256.0,1762.0,-11.0,-6.0,-11.0
90.563973903656,,,751.0,99.0,2006.0,-13.0,-8.0,-10.0
90.60910820960999,,,489.0,169.0,2054.0,-14.0,-7.0,-18.0
90.65419793128967,,,440.0,269.0,1927.0,-20.0,-10.0,-30.0
90.69936776161194,,,417.0,812.0,1594.0,-19.0,-8.0,-30.0
90.74833798408508,,,542.0,953.0,1300.0,-8.0,-6.0,-9.0
90.80162572860718,,,782.0,473.0,1076.0,1.0,-4.0,-2.0
90.84662532806396,,,555.0,-154.0,1357.0,3.0,-4.0,-8.0
90.891672372818,,,403.0,-408.0,1446.0,8.0,-3.0,-20.0
90.93671369552612,,,274.0,-290.0,1617.0,11.0,0.0,-18.0
90.98177480697632,,,226.0,-324.0,1851.0,13.0,0.0,-4.0
91.02690887451172,,,275.0,-515.0,1781.0,14.0,1.0,0.0
91.08024191856384,,,480.0,-637.0,1670.0,11.0,1.0,3.0
91.11690974235535,,,626.0,-567.0,1565.0,12.0,1.0,-1.0
91.16205167770386,,,876.0,-282.0,1421.0,9.0,1.0,6.0
91.21941900253296,,,844.0,309.0,1079.0,7.0,0.0,18.0
91.26039052009583,,,102.0,777.0,894.0,8.0,-1.0,34.0
91.2972366809845,,,-1066.0,110.0,1337.0,13.0,2.0,51.0
91.3464503288269,,,-1445.0,-723.0,2078.0,14.0,6.0,51.0
91.38742280006409,,,-1439.0,-1755.0,3583.0,13.0,10.0,29.0
91.43242621421814,,,132.0,-1203.0,3581.0,-8.0,7.0,-8.0
91.4775505065918,,,836.0,1007.0,1841.0,-23.0,-2.0,-4.0
91.52250814437866,,,-360.0,2054.0,379.0,-12.0,-1.0,39.0
91.5675299167633,,,-1575.0,1013.0,405.0,-3.0,1.0,64.0
91.61296582221985,,,-1180.0,-222.0,1029.0,-2.0,7.0,31.0
91.65777087211609,,,-566.0,-533.0,1773.0,-6.0,3.0,-13.0
91.70675826072693,,,-557.0,159.0,1754.0,-10.0,-6.0,-26.0
91.75183844566345,,,-1005.0,674.0,1394.0,-8.0,-6.0,4.0
91.79272675514221,,,-1049.0,637.0,888.0,-5.0,-5.0,30.0
91.83783268928528,,,-1102.0,164.0,579.0,-1.0,-6.0,29.0
91.88293027877808,,,-1002.0,-281.0,466.0,3.0,-10.0,9.0
91.92789435386658,,,-943.0,-382.0,574.0,7.0,-15.0,-6.0
91.972900390625,,,-837.0,-333.0,1057.0,13.0,-16.0,-1.0
92.01853609085083,,,-383.0,-91.0,2158.0,9.0,-10.0,-5.0
92.06325173377991,,,7.0,1060.0,2870.0,4.0,-7.0,-2.0
92.10829138755798,,,-209.0,1594.0,2330.0,8.0,-4.0,26.0
92.15330839157104,,,186.0,1105.0,1998.0,7.0,-4.0,33.0
92.21478748321533,,,282.0,954.0,2092.0,8.0,-3.0,21.0
92.25966501235962,,,426.0,1014.0,2751.0,2.0,-4.0,5.0
92.30489778518677,,,186.0,1732.0,2659.0,-1.0,-9.0,15.0
92.34990286827087,,,-29.0,1855.0,2054.0,-1.0,-9.0,36.0
92.39493536949158,,,168.0,1646.0,1563.0,-2.0,-10.0,31.0
92.43987894058228,,,0.0,1232.0,1517.0,2.0,-13.0,6.0
92.48495364189148,,,-689.0,1017.0,2062.0,-1.0,-14.0,-6.0
92.53004002571106,,,-1386.0,894.0,2321.0,5.0,-10.0,6.0
92.5750834941864,,,-1007.0,601.0,2337.0,4.0,-12.0,14.0
92.62020087242126,,,-890.0,555.0,2134.0,2.0,-16.0,8.0
92.66937470436096,,,-869.0,300.0,2027.0,4.0,-18.0,1.0
92.71021580696106,,,-930.0,644.0,1964.0,6.0,-16.0,6.0
92.7553231716156,,,-764.0,687.0,1889.0,10.0,-15.0,11.0
92.8002507686615,,,-720.0,550.0,1878.0,7.0,-15.0,9.0
92.84545707702637,,,-858.0,535.0,1656.0,9.0,-14.0,5.0
92.89053392410278,,,-958.0,427.0,1770.0,10.0,-11.0,6.0
92.93549394607544,,,-874.0,233.0,2065.0,13.0,-9.0,10.0
92.98066186904907,,,-843.0,-492.0,2969.0,15.0,-8.0,2.0
93.02576684951782,,,-554.0,-695.0,3170.0,5.0,-14.0,-9.0
93.0706946849823,,,-1758.0,605.0,2713.0,-5.0,-24.0,-2.0
93.11993265151978,,,-4255.0,729.0,2998.0,-12.0,-41.0,88.0
93.16078901290894,,,-2976.0,323.0,1665.0,0.0,-41.0,108.0
93.20223069190979,,,-1252.0,-602.0,1601.0,1.0,-58.0,49.0
93.24681496620178,,,-1772.0,-79.0,2087.0,14.0,-47.0,39.0
93.29185771942139,,,-628.0,-158.0,2066.0,20.0,-50.0,57.0
93.33705067634583,,,794.0,-760.0,1707.0,14.0,-42.0,16.0
93.38610935211182,,,1200.0,-1380.0,1509.0,22.0,-29.0,-29.0
93.42702770233154,,,644.0,-792.0,1454.0,18.0,-12.0,-49.0
93.47206664085388,,,80.0,-426.0,1443.0,20.0,3.0,-30.0
93.5171389579773,,,-406.0,-1249.0,2015.0,8.0,12.0,-32.0
93.56213593482971,,,-860.0,-874.0,2048.0,-1.0,13.0,-22.0
93.60729551315308,,,-509.0,-843.0,2146.0,-5.0,16.0,-12.0
93.65228867530823,,,-652.0,-472.0,2433.0,-11.0,16.0,-15.0
93.70977759361267,,,-555.0,171.0,2267.0,-19.0,15.0,-17.0
93.74245262145996,,,-1520.0,284.0,2229.0,-19.0,13.0,-5.0
93.78749537467957,,,-1767.0,104.0,2578.0,-16.0,14.0,21.0
93.83273196220398,,,-1234.0,-118.0,3015.0,-12.0,17.0,19.0
93.8775703907013,,,-1736.0,-661.0,3309.0,-23.0,8.0,0.0
93.92256999015808,,,-2390.0,-553.0,3331.0,-16.0,8.0,11.0
93.96760821342468,,,-1808.0,510.0,3504.0,-15.0,12.0,13.0
94.01273488998413,,,-2009.0,966.0,3044.0,-17.0,-2.0,6.0
94.05788278579712,,,-1984.0,555.0,2439.0,-9.0,-2.0,1.0
94.1029417514801,,,-1897.0,249.0,2177.0,-7.0,-5.0,-5.0
94.14788484573364,,,-1792.0,101.0,1925.0,-8.0,-6.0,2.0
94.19301295280457,,,-1355.0,-168.0,1906.0,-3.0,-4.0,0.0
94.23792624473572,,,-1529.0,-457.0,1881.0,-6.0,-5.0,-11.0
94.28301858901978,,,-1542.0,34.0,1504.0,-3.0,-3.0,2.0
94.32808756828308,,,-1431.0,-101.0,1486.0,4.0,-2.0,14.0
94.37312531471252,,,-883.0,-407.0,2057.0,8.0,-1.0,10.0
94.41845560073853,,,-783.0,-158.0,2802.0,8.0,2.0,8.0
94.46347546577454,,,-460.0,908.0,2759.0,4.0,1.0,17.0
94.50836420059204,,,-941.0,1063.0,2309.0,3.0,-6.0,23.0
94.5535159111023,,,-599.0,886.0,2263.0,13.0,3.0,35.0
94.59854197502136,,,163.0,503.0,2911.0,8.0,-2.0,16.0
94.64344429969788,,,580.0,640.0,3016.0,-6.0,-6.0,-6.0
94.68851208686829,,,-364.0,443.0,2468.0,-3.0,-4.0,-20.0
94.73368859291077,,,-1070.0,756.0,2572.0,-4.0,-2.0,-7.0
94.77872467041016,,,-1012.0,899.0,2940.0,-8.0,-5.0,2.0
94.8237943649292,,,-1296.0,891.0,2333.0,-7.0,-5.0,10.0
94.86880040168762,,,-884.0,648.0,1722.0,6.0,-3.0,4.0
94.91385674476624,,,-866.0,443.0,1922.0,-1.0,1.0,2.0
94.95887875556946,,,-1778.0,1041.0,2027.0,8.0,1.0,4.0
95.00387930870056,,,-3537.0,991.0,901.0,27.0,4.0,25.0
95.0489730834961,,,-4441.0,704.0,-610.0,53.0,22.0,89.0
95.09405851364136,,,-4041.0,-531.0,-401.0,86.0,34.0,117.0
95.13903570175171,,,-2880.0,-1415.0,822.0,119.0,25.0,90.0
95.18413734436035,,,-1661.0,-1811.0,1476.0,138.0,27.0,60.0
95.22929000854492,,,145.0,-1981.0,2663.0,130.0,37.0,48.0
95.27423739433289,,,352.0,-857.0,2855.0,114.0,41.0,64.0
95.31940579414368,,,1845.0,7.0,2679.0,103.0,36.0,49.0
95.36442303657532,,,1845.0,524.0,2191.0,88.0,43.0,42.0
95.40952825546265,,,1860.0,1380.0,1397.0,55.0,58.0,27.0
95.47102499008179,,,885.0,2156.0,1195.0,33.0,53.0,21.0
95.51590371131897,,,421.0,2314.0,1516.0,23.0,51.0,-3.0
95.56092643737793,,,-385.0,3078.0,1597.0,-9.0,37.0,-31.0
95.60613679885864,,,-1467.0,2744.0,1821.0,-16.0,16.0,-52.0
95.64695692062378,,,-3008.0,838.0,1312.0,-2.0,7.0,-44.0
95.69197678565979,,,-3336.0,550.0,1090.0,-4.0,2.0,-1.0
95.737380027771,,,-2476.0,1311.0,834.0,-7.0,-16.0,0.0
95.78223705291748,,,-1688.0,506.0,662.0,-5.0,-13.0,-1.0
95.8273675441742,,,-890.0,720.0,836.0,-13.0,-20.0,-9.0
95.87243819236755,,,-840.0,730.0,550.0,-8.0,-23.0,-42.0
95.91737365722656,,,-1343.0,-38.0,885.0,-5.0,-25.0,-50.0
95.96234226226807,,,-2078.0,-353.0,542.0,-1.0,-17.0,-24.0
,,,,,,,,
