time,/ext_usb_camera/image/compressed,robogame/imu_state,robogame/imu_state.linear_acc.x,robogame/imu_state.linear_acc.y,robogame/imu_state.linear_acc.z,robogame/imu_state.gyro.z,robogame/imu_state.gyro.x,robogame/imu_state.gyro.y
0.0,,,3882.0,-1066.0,5732.0,-15.0,14.0,-22.0
0.020475387573242188,,,4488.0,-1514.0,5595.0,-12.0,10.0,1.0
0.04091668128967285,,,4416.0,-1647.0,5455.0,-12.0,5.0,8.0
0.06140947341918945,,,4132.0,-1731.0,5187.0,-14.0,-2.0,8.0
0.08197474479675293,,,3495.0,-1626.0,4230.0,-17.0,-18.0,-5.0
0.10244202613830566,,,3214.0,-1465.0,3646.0,-17.0,-25.0,-13.0
0.12298130989074707,,,2734.0,-1131.0,2459.0,-15.0,-35.0,-29.0
0.14352893829345703,,,2593.0,-944.0,1969.0,-14.0,-39.0,-35.0
0.16385769844055176,,,2521.0,-744.0,1591.0,-12.0,-43.0,-39.0
0.18433523178100586,,,2420.0,-369.0,1151.0,-8.0,-46.0,-40.0
0.20477533340454102,,,2270.0,-251.0,979.0,-6.0,-46.0,-38.0
0.22528696060180664,,,2041.0,-179.0,799.0,-4.0,-45.0,-37.0
0.24570989608764648,,,1535.0,-96.0,495.0,0.0,-41.0,-35.0
0.2661759853363037,,,1300.0,-73.0,435.0,1.0,-39.0,-34.0
0.2866339683532715,,,1063.0,-4.0,456.0,2.0,-36.0,-31.0
0.3073770999908447,,,611.0,194.0,635.0,0.0,-30.0,-24.0
0.3276197910308838,,,417.0,263.0,659.0,-2.0,-26.0,-21.0
0.34818482398986816,,,256.0,306.0,655.0,-4.0,-21.0,-19.0
0.3685951232910156,,,-16.0,478.0,903.0,-7.0,-11.0,-15.0
0.3891329765319824,,,-128.0,560.0,1187.0,-8.0,-8.0,-14.0
0.4096701145172119,,,-149.0,450.0,1634.0,-12.0,-4.0,-12.0
0.4300537109375,,,-38.0,313.0,1759.0,-14.0,0.0,-12.0
0.4505445957183838,,,90.0,194.0,1899.0,-15.0,3.0,-12.0
0.47103238105773926,,,392.0,116.0,2380.0,-15.0,5.0,-10.0
0.49149203300476074,,,611.0,97.0,2632.0,-15.0,3.0,-7.0
0.5162060260772705,,,1050.0,8.0,2845.0,-13.0,0.0,2.0
0.5365433692932129,,,1181.0,-73.0,2749.0,-11.0,-1.0,6.0
0.5570833683013916,,,1213.0,-96.0,2615.0,-9.0,-1.0,11.0
0.5775222778320312,,,886.0,12.0,2367.0,-5.0,-2.0,18.0
0.5979747772216797,,,576.0,31.0,2178.0,-4.0,-2.0,20.0
0.6185965538024902,,,263.0,21.0,1974.0,-4.0,-2.0,19.0
0.6391150951385498,,,-385.0,39.0,1741.0,-3.0,-3.0,11.0
0.6595072746276855,,,-678.0,35.0,1685.0,-4.0,-4.0,6.0
0.6799662113189697,,,-903.0,13.0,1643.0,-6.0,-5.0,-1.0
0.7004127502441406,,,-1028.0,49.0,1737.0,-11.0,-6.0,-12.0
0.7169497013092041,,,-940.0,77.0,1859.0,-12.0,-6.0,-15.0
0.7373547554016113,,,-703.0,47.0,2067.0,-12.0,-6.0,-18.0
0.7577714920043945,,,-608.0,50.0,2198.0,-12.0,-6.0,-18.0
0.7782325744628906,,,-523.0,54.0,2332.0,-13.0,-6.0,-17.0
0.7987267971038818,,,-319.0,12.0,2475.0,-13.0,-6.0,-11.0
0.819305419921875,,,-215.0,-22.0,2450.0,-13.0,-5.0,-8.0
0.8396461009979248,,,-140.0,-39.0,2363.0,-12.0,-6.0,-4.0
0.8602128028869629,,,-122.0,50.0,2115.0,-10.0,-9.0,1.0
0.8806662559509277,,,-211.0,137.0,1942.0,-8.0,-10.0,2.0
0.9011142253875732,,,-355.0,208.0,1719.0,-6.0,-10.0,0.0
0.9215738773345947,,,-790.0,410.0,1358.0,-1.0,-9.0,-5.0
0.9420039653778076,,,-1050.0,523.0,1233.0,1.0,-8.0,-8.0
0.9624364376068115,,,-1287.0,629.0,1167.0,1.0,-8.0,-12.0
0.9830331802368164,,,-1724.0,953.0,1311.0,-2.0,-10.0,-22.0
1.0035393238067627,,,-1855.0,1076.0,1421.0,-6.0,-11.0,-27.0
1.0239503383636475,,,-1867.0,1103.0,1523.0,-11.0,-11.0,-32.0
1.044494390487671,,,-1527.0,968.0,1764.0,-18.0,-6.0,-35.0
1.0648691654205322,,,-1264.0,781.0,1879.0,-19.0,-4.0,-32.0
1.085503101348877,,,-639.0,415.0,2114.0,-19.0,0.0,-23.0
1.1058690547943115,,,-463.0,434.0,2357.0,-19.0,0.0,-18.0
1.1263506412506104,,,-403.0,519.0,2616.0,-21.0,1.0,-14.0
1.1468026638031006,,,-257.0,527.0,2900.0,-26.0,-1.0,-13.0
1.1673455238342285,,,-141.0,430.0,2929.0,-26.0,-2.0,-13.0
1.1878798007965088,,,30.0,253.0,2854.0,-26.0,-2.0,-13.0
1.2082724571228027,,,557.0,-207.0,2522.0,-25.0,-2.0,-11.0
1.2288289070129395,,,853.0,-417.0,2377.0,-23.0,-2.0,-8.0
1.2493627071380615,,,1226.0,-643.0,2180.0,-15.0,-1.0,0.0
1.2697515487670898,,,1255.0,-600.0,2183.0,-12.0,0.0,3.0
1.2902393341064453,,,1185.0,-478.0,2271.0,-9.0,2.0,5.0
1.310730218887329,,,975.0,-322.0,2513.0,-7.0,5.0,8.0
1.3311834335327148,,,928.0,-330.0,2632.0,-5.0,5.0,10.0
1.3516414165496826,,,881.0,-345.0,2716.0,-3.0,5.0,12.0
1.3721981048583984,,,674.0,-354.0,2749.0,1.0,5.0,14.0
1.3926482200622559,,,502.0,-312.0,2729.0,3.0,4.0,13.0
1.4130656719207764,,,303.0,-241.0,2684.0,4.0,3.0,10.0
1.4336700439453125,,,-143.0,-142.0,2432.0,6.0,0.0,3.0
1.454000473022461,,,-349.0,-117.0,2309.0,7.0,-2.0,-2.0
1.4745066165924072,,,-517.0,-47.0,2252.0,8.0,-4.0,-6.0
1.4949681758880615,,,-670.0,41.0,2277.0,7.0,-6.0,-10.0
1.5155770778656006,,,-683.0,35.0,2276.0,6.0,-6.0,-9.0
1.5359859466552734,,,-649.0,-90.0,2197.0,3.0,-8.0,-8.0
1.5564053058624268,,,-632.0,-118.0,2159.0,3.0,-9.0,-8.0
1.5769031047821045,,,-640.0,-101.0,2140.0,3.0,-10.0,-8.0
1.5973658561706543,,,-717.0,104.0,2141.0,1.0,-11.0,-11.0
1.617976188659668,,,-742.0,215.0,2149.0,-1.0,-12.0,-12.0
1.6383841037750244,,,-738.0,291.0,2131.0,-2.0,-13.0,-13.0
1.6588835716247559,,,-689.0,349.0,2081.0,-2.0,-13.0,-14.0
1.679255723953247,,,-628.0,399.0,1999.0,-3.0,-14.0,-14.0
1.7038261890411377,,,-566.0,438.0,1909.0,-3.0,-13.0,-13.0
1.7244141101837158,,,-523.0,478.0,1826.0,-2.0,-13.0,-11.0
1.7448368072509766,,,-541.0,557.0,1702.0,-2.0,-10.0,-9.0
1.7653374671936035,,,-561.0,598.0,1679.0,-3.0,-9.0,-8.0
1.7858498096466064,,,-575.0,645.0,1680.0,-3.0,-7.0,-8.0
1.8064029216766357,,,-555.0,645.0,1720.0,-5.0,-4.0,-9.0
1.8268964290618896,,,-501.0,623.0,1778.0,-5.0,-3.0,-9.0
1.847252368927002,,,-442.0,583.0,1828.0,-5.0,-1.0,-8.0
1.8678090572357178,,,-262.0,421.0,1918.0,-4.0,1.0,-5.0
1.8882629871368408,,,-193.0,335.0,1957.0,-3.0,2.0,-3.0
1.908675193786621,,,-162.0,253.0,1988.0,-1.0,3.0,-1.0
1.9291114807128906,,,-187.0,181.0,2066.0,1.0,4.0,1.0
1.9496710300445557,,,-237.0,192.0,2098.0,2.0,4.0,2.0
1.9701170921325684,,,-363.0,190.0,2121.0,1.0,4.0,3.0
1.9905967712402344,,,-409.0,172.0,2118.0,1.0,3.0,2.0
2.0110466480255127,,,-450.0,164.0,2105.0,1.0,2.0,1.0
2.0315372943878174,,,-485.0,101.0,2070.0,1.0,1.0,-1.0
2.0520849227905273,,,-480.0,58.0,2082.0,1.0,1.0,-2.0
2.072568655014038,,,-466.0,18.0,2109.0,1.0,0.0,-2.0
2.09294056892395,,,-421.0,14.0,2174.0,1.0,0.0,1.0
2.113445281982422,,,-400.0,28.0,2182.0,0.0,0.0,2.0
2.1339924335479736,,,-398.0,45.0,2176.0,-1.0,0.0,3.0
2.1543846130371094,,,-462.0,83.0,2143.0,-2.0,-1.0,4.0
2.174846887588501,,,-481.0,91.0,2087.0,-3.0,-1.0,2.0
2.1954143047332764,,,-480.0,101.0,2025.0,-4.0,-1.0,1.0
2.216048002243042,,,-433.0,169.0,2006.0,-4.0,-1.0,-2.0
2.2363107204437256,,,-395.0,182.0,2009.0,-4.0,-1.0,-2.0
2.2568559646606445,,,-347.0,169.0,1971.0,-3.0,-1.0,-3.0
2.277284622192383,,,-329.0,181.0,1974.0,-3.0,0.0,-3.0
2.2978386878967285,,,-314.0,207.0,2012.0,-3.0,0.0,-3.0
2.3182291984558105,,,-294.0,205.0,2081.0,-3.0,0.0,-3.0
2.3347134590148926,,,-306.0,181.0,2090.0,-3.0,1.0,-4.0
2.355262517929077,,,-296.0,140.0,2097.0,-2.0,1.0,-4.0
2.375821590423584,,,-223.0,111.0,2164.0,-1.0,1.0,-4.0
2.396146059036255,,,-188.0,101.0,2229.0,-1.0,1.0,-3.0
2.41656756401062,,,-169.0,77.0,2252.0,-1.0,0.0,-1.0
2.4370779991149902,,,-156.0,52.0,2223.0,0.0,0.0,0.0
2.4574637413024902,,,-189.0,69.0,2204.0,1.0,0.0,0.0
2.4779982566833496,,,-306.0,126.0,2202.0,1.0,0.0,-1.0
2.4985315799713135,,,-331.0,138.0,2220.0,1.0,0.0,-1.0
2.518934488296509,,,-334.0,123.0,2235.0,0.0,0.0,-2.0
2.539508104324341,,,-291.0,64.0,2231.0,-1.0,0.0,-2.0
2.559908628463745,,,-279.0,16.0,2198.0,0.0,-1.0,-2.0
2.580310344696045,,,-264.0,-16.0,2148.0,0.0,-1.0,-3.0
2.6008870601654053,,,-248.0,-25.0,2096.0,1.0,-1.0,-3.0
2.6213557720184326,,,-222.0,-23.0,2071.0,1.0,-1.0,-3.0
2.641841411590576,,,-201.0,6.0,2076.0,1.0,-1.0,-3.0
2.6624855995178223,,,-187.0,55.0,2090.0,1.0,-1.0,-2.0
2.6828315258026123,,,-198.0,48.0,2083.0,1.0,-1.0,-1.0
2.7032830715179443,,,-208.0,25.0,2086.0,1.0,-1.0,-2.0
2.7237837314605713,,,-202.0,21.0,2103.0,0.0,0.0,-2.0
2.7443575859069824,,,-160.0,58.0,2157.0,0.0,0.0,-1.0
2.7647206783294678,,,-129.0,52.0,2136.0,0.0,0.0,-1.0
2.785284996032715,,,-115.0,34.0,2116.0,0.0,0.0,-1.0
2.8056530952453613,,,-82.0,12.0,2088.0,0.0,0.0,-1.0
2.826087236404419,,,-27.0,4.0,2055.0,1.0,0.0,1.0
2.8466060161590576,,,-50.0,31.0,2041.0,2.0,0.0,2.0
2.867126941680908,,,-87.0,56.0,2052.0,2.0,0.0,2.0
2.887579917907715,,,-187.0,108.0,2089.0,1.0,0.0,1.0
2.908140182495117,,,-230.0,126.0,2104.0,1.0,0.0,1.0
2.928597927093506,,,-249.0,127.0,2115.0,1.0,0.0,0.0
2.949158191680908,,,-206.0,40.0,2116.0,0.0,0.0,0.0
2.9695370197296143,,,-155.0,12.0,2115.0,0.0,0.0,1.0
2.9901082515716553,,,-124.0,39.0,2161.0,1.0,0.0,3.0
3.010436773300171,,,-147.0,57.0,2173.0,1.0,-1.0,3.0
3.034998893737793,,,-181.0,56.0,2165.0,1.0,-1.0,3.0
3.05141019821167,,,-232.0,40.0,2108.0,0.0,-1.0,2.0
3.0719406604766846,,,-241.0,47.0,2107.0,0.0,-1.0,2.0
3.0924901962280273,,,-276.0,47.0,2112.0,1.0,-1.0,2.0
3.11286997795105,,,-285.0,18.0,2089.0,1.0,-1.0,1.0
3.133301019668579,,,-281.0,7.0,2095.0,1.0,-1.0,1.0
3.153843641281128,,,-259.0,3.0,2155.0,0.0,0.0,2.0
3.1743593215942383,,,-242.0,44.0,2212.0,0.0,-1.0,2.0
3.1948156356811523,,,-249.0,62.0,2249.0,0.0,-1.0,2.0
3.2152342796325684,,,-242.0,-23.0,2171.0,-1.0,-1.0,-1.0
3.235805034637451,,,-167.0,-47.0,2144.0,-2.0,-1.0,-2.0
3.256274700164795,,,-66.0,-34.0,2155.0,-2.0,-2.0,-1.0
3.2767207622528076,,,127.0,38.0,2178.0,-1.0,-3.0,2.0
3.2971136569976807,,,148.0,50.0,2123.0,0.0,-3.0,3.0
3.317695140838623,,,108.0,60.0,2061.0,1.0,-2.0,3.0
3.338118553161621,,,-65.0,175.0,2077.0,2.0,-1.0,2.0
3.358698844909668,,,-140.0,220.0,2124.0,3.0,-1.0,1.0
3.3791074752807617,,,-209.0,171.0,2134.0,2.0,-1.0,-1.0
3.3995981216430664,,,-199.0,115.0,2078.0,1.0,0.0,-2.0
3.420046329498291,,,-128.0,66.0,2052.0,0.0,0.0,-2.0
3.440629005432129,,,95.0,43.0,2053.0,1.0,0.0,-1.0
3.4609928131103516,,,186.0,41.0,2045.0,2.0,0.0,0.0
3.4814553260803223,,,256.0,44.0,2044.0,2.0,-1.0,2.0
3.502113103866577,,,313.0,-35.0,1983.0,3.0,-1.0,4.0
3.5224552154541016,,,326.0,-95.0,1911.0,2.0,-1.0,3.0
3.5429279804229736,,,344.0,-150.0,1816.0,2.0,-1.0,3.0
3.5635223388671875,,,510.0,-418.0,1467.0,-2.0,-5.0,1.0
3.583982467651367,,,725.0,-612.0,1244.0,-4.0,-7.0,0.0
3.60448956489563,,,1309.0,-791.0,1112.0,-5.0,-7.0,4.0
3.6251189708709717,,,1509.0,-751.0,1216.0,-4.0,-5.0,9.0
3.6454899311065674,,,1585.0,-663.0,1433.0,-2.0,-4.0,13.0
3.6658215522766113,,,1579.0,-579.0,1678.0,-1.0,-5.0,17.0
3.6864094734191895,,,1538.0,-580.0,1861.0,-2.0,-7.0,21.0
3.7068943977355957,,,1527.0,-676.0,1964.0,-5.0,-9.0,25.0
3.7273173332214355,,,1600.0,-865.0,2076.0,-8.0,-13.0,30.0
3.7477190494537354,,,1565.0,-924.0,1996.0,-7.0,-14.0,33.0
3.7682483196258545,,,1458.0,-988.0,1833.0,-6.0,-15.0,35.0
3.788740873336792,,,1183.0,-1043.0,1559.0,-5.0,-18.0,34.0
3.809203624725342,,,1041.0,-1090.0,1491.0,-7.0,-18.0,31.0
3.829592227935791,,,907.0,-1223.0,1409.0,-8.0,-19.0,28.0
3.8501808643341064,,,522.0,-1789.0,979.0,-9.0,-16.0,22.0
3.8707005977630615,,,259.0,-2076.0,839.0,-9.0,-15.0,17.0
3.891136646270752,,,-276.0,-2137.0,1162.0,-8.0,-13.0,1.0
3.911648750305176,,,-481.0,-1954.0,1615.0,-11.0,-12.0,-12.0
3.9321062564849854,,,-514.0,-1795.0,2252.0,-15.0,-12.0,-25.0
3.9525396823883057,,,-33.0,-1468.0,4231.0,-21.0,-14.0,-53.0
3.9730026721954346,,,354.0,-1364.0,5334.0,-23.0,-16.0,-64.0
3.9936184883117676,,,761.0,-1561.0,6119.0,-27.0,-17.0,-70.0
4.013964414596558,,,1388.0,-1926.0,7056.0,-24.0,-12.0,-77.0
4.034435272216797,,,1522.0,-1780.0,7308.0,-20.0,-10.0,-77.0
4.0549421310424805,,,1580.0,-1603.0,7291.0,-20.0,-8.0,-75.0
4.075350522994995,,,1965.0,-1472.0,6773.0,-28.0,0.0,-60.0
4.0960822105407715,,,2283.0,-1446.0,6460.0,-27.0,3.0,-51.0
4.116478443145752,,,2636.0,-1270.0,5421.0,-16.0,10.0,-32.0
4.132707595825195,,,2645.0,-905.0,4772.0,-3.0,12.0,-22.0
4.153179407119751,,,2423.0,-343.0,4070.0,11.0,13.0,-12.0
4.173714637756348,,,2039.0,343.0,3464.0,21.0,11.0,-2.0
4.1942667961120605,,,1542.0,1132.0,3011.0,29.0,8.0,5.0
4.2147157192230225,,,946.0,1910.0,2646.0,34.0,4.0,8.0
4.23513388633728,,,-157.0,3021.0,2218.0,40.0,-2.0,0.0
4.255687236785889,,,-537.0,3587.0,2429.0,46.0,-4.0,-8.0
4.2761194705963135,,,-871.0,4194.0,2787.0,49.0,-7.0,-16.0
4.296626329421997,,,-1283.0,4925.0,3558.0,42.0,-9.0,-23.0
4.31706690788269,,,-1329.0,4959.0,3879.0,38.0,-6.0,-22.0
4.337698459625244,,,-1394.0,4883.0,4191.0,36.0,-3.0,-21.0
4.35793662071228,,,-1709.0,4532.0,4828.0,29.0,5.0,-19.0
4.378620862960815,,,-1851.0,4247.0,5114.0,22.0,10.0,-14.0
4.398985147476196,,,-1715.0,2953.0,5180.0,2.0,29.0,20.0
4.419410943984985,,,-1434.0,1951.0,4769.0,-5.0,30.0,39.0
4.439972877502441,,,-1235.0,1004.0,4033.0,-5.0,26.0,53.0
4.460446119308472,,,-1676.0,-168.0,1436.0,-4.0,16.0,67.0
4.480879545211792,,,-2395.0,-454.0,-91.0,-9.0,14.0,61.0
4.501401901245117,,,-3253.0,-669.0,-1255.0,-15.0,10.0,48.0
4.522058486938477,,,-4063.0,-1395.0,-2692.0,-16.0,-11.0,5.0
4.542435646057129,,,-3988.0,-1902.0,-3397.0,-10.0,-21.0,-21.0
4.562858819961548,,,-3742.0,-2380.0,-4140.0,-1.0,-29.0,-47.0
4.5834715366363525,,,-2997.0,-2937.0,-5324.0,16.0,-38.0,-78.0
4.603780508041382,,,-2621.0,-3029.0,-5538.0,21.0,-41.0,-87.0
4.624216556549072,,,-2260.0,-2538.0,-4332.0,31.0,-53.0,-104.0
4.644791841506958,,,-2481.0,-1814.0,-2699.0,37.0,-69.0,-118.0
4.665227890014648,,,-2709.0,-610.0,-826.0,43.0,-83.0,-137.0
4.685724258422852,,,-3652.0,1865.0,2189.0,8.0,-72.0,-177.0
4.70621132850647,,,-3737.0,2042.0,3132.0,-29.0,-60.0,-175.0
4.726800441741943,,,-2978.0,1307.0,4166.0,-49.0,-42.0,-143.0
4.747111082077026,,,-1022.0,-682.0,6658.0,-26.0,-20.0,-37.0
4.767578840255737,,,-654.0,-620.0,7489.0,-11.0,-23.0,13.0
4.788108825683594,,,-584.0,208.0,7450.0,-4.0,-22.0,51.0
4.808715343475342,,,-1436.0,2307.0,4951.0,-22.0,-3.0,72.0
4.828990936279297,,,-1809.0,2660.0,3488.0,-36.0,1.0,55.0
4.849538087844849,,,-1614.0,2414.0,2411.0,-42.0,4.0,29.0
4.869972229003906,,,-58.0,1382.0,1689.0,-29.0,13.0,-23.0
4.890427589416504,,,821.0,1004.0,1959.0,-13.0,18.0,-42.0
4.911040306091309,,,1863.0,-442.0,1692.0,14.0,19.0,-68.0
4.931421995162964,,,2225.0,-1143.0,1439.0,25.0,24.0,-76.0
4.951980113983154,,,2436.0,-1104.0,1810.0,36.0,32.0,-71.0
4.972394704818726,,,1718.0,1945.0,4573.0,61.0,35.0,-29.0
4.992889165878296,,,696.0,3804.0,5225.0,61.0,28.0,-2.0
5.01336407661438,,,-349.0,4902.0,4929.0,49.0,25.0,15.0
5.033843755722046,,,-2132.0,5196.0,3958.0,36.0,35.0,14.0
5.054300546646118,,,-2960.0,4947.0,3653.0,32.0,37.0,9.0
5.074787139892578,,,-3570.0,4652.0,3610.0,27.0,36.0,6.0
5.09528660774231,,,-4162.0,3894.0,3952.0,20.0,30.0,17.0
5.115743160247803,,,-4141.0,3231.0,3832.0,18.0,30.0,33.0
5.136159420013428,,,-3442.0,1634.0,3554.0,15.0,35.0,84.0
5.156814813613892,,,-2415.0,1333.0,2662.0,17.0,38.0,74.0
5.177192449569702,,,-1960.0,1154.0,1449.0,11.0,40.0,73.0
5.19767951965332,,,-2104.0,902.0,-543.0,-9.0,38.0,114.0
5.214103937149048,,,-2382.0,609.0,-1329.0,-11.0,32.0,114.0
5.234565734863281,,,-2739.0,16.0,-2149.0,-8.0,22.0,98.0
5.254991292953491,,,-3412.0,-1774.0,-4129.0,5.0,2.0,42.0
5.275487661361694,,,-3567.0,-2660.0,-4965.0,13.0,-5.0,14.0
5.295997858047485,,,-3520.0,-3294.0,-5398.0,22.0,-12.0,-12.0
5.316433668136597,,,-3284.0,-3195.0,-4235.0,35.0,-36.0,-68.0
5.336966037750244,,,-2958.0,-2187.0,-2748.0,43.0,-53.0,-111.0
5.357353448867798,,,-2123.0,-331.0,-884.0,50.0,-47.0,-164.0
5.3780741691589355,,,-1204.0,906.0,2979.0,30.0,-36.0,-191.0
5.398317337036133,,,-687.0,-579.0,4460.0,2.0,-21.0,-121.0
5.418933153152466,,,3208.0,-2868.0,6229.0,25.0,52.0,35.0
5.4393630027771,,,4218.0,-2410.0,6486.0,47.0,71.0,102.0
5.459975481033325,,,4024.0,-1216.0,6148.0,58.0,68.0,165.0
5.4803454875946045,,,953.0,1207.0,3970.0,83.0,45.0,156.0
5.5007853507995605,,,-1666.0,1853.0,2332.0,75.0,31.0,99.0
5.521219253540039,,,-4321.0,2129.0,919.0,56.0,19.0,29.0
5.545804738998413,,,-7202.0,3255.0,524.0,27.0,4.0,-68.0
5.566216468811035,,,-7127.0,3606.0,1342.0,16.0,-8.0,-68.0
5.586837291717529,,,-5229.0,2388.0,3056.0,-29.0,-18.0,-26.0
5.607498407363892,,,-4884.0,1293.0,3764.0,-44.0,-23.0,-21.0
5.62777853012085,,,-5018.0,436.0,3811.0,-61.0,-29.0,-13.0
5.648184299468994,,,-3831.0,412.0,2139.0,-81.0,-20.0,44.0
5.668715476989746,,,-2617.0,898.0,1126.0,-77.0,-9.0,84.0
5.689107894897461,,,-1257.0,1325.0,114.0,-75.0,3.0,115.0
5.709700584411621,,,1033.0,1789.0,-1870.0,-60.0,31.0,124.0
5.730094909667969,,,1354.0,2101.0,-2364.0,-49.0,39.0,109.0
5.750625371932983,,,1173.0,2522.0,-2431.0,-39.0,43.0,86.0
5.771109580993652,,,673.0,3089.0,-2088.0,-31.0,46.0,33.0
5.791528224945068,,,959.0,3103.0,-1858.0,-26.0,47.0,16.0
5.81208872795105,,,2491.0,3153.0,-1649.0,-8.0,63.0,16.0
5.832547187805176,,,2834.0,3640.0,-1292.0,0.0,82.0,35.0
5.8530113697052,,,2486.0,4194.0,-439.0,5.0,97.0,54.0
5.873478412628174,,,1927.0,4326.0,1537.0,9.0,100.0,68.0
5.8940370082855225,,,2292.0,4150.0,2279.0,15.0,99.0,76.0
5.914408206939697,,,2662.0,4059.0,2879.0,21.0,100.0,85.0
5.930849075317383,,,2254.0,4215.0,4116.0,29.0,97.0,85.0
5.951351881027222,,,1887.0,4190.0,4711.0,37.0,90.0,78.0
5.971737861633301,,,1760.0,4098.0,5136.0,48.0,81.0,70.0
5.992223501205444,,,1399.0,4200.0,5996.0,74.0,65.0,63.0
6.012667894363403,,,791.0,4171.0,6568.0,77.0,58.0,64.0
6.033219575881958,,,-657.0,3632.0,7602.0,69.0,42.0,77.0
6.053672790527344,,,-1239.0,3047.0,7553.0,63.0,33.0,85.0
6.074134588241577,,,-1825.0,2318.0,7090.0,57.0,26.0,89.0
6.094780921936035,,,-2623.0,459.0,5085.0,41.0,8.0,75.0
6.115196466445923,,,-2313.0,-372.0,3558.0,28.0,1.0,66.0
6.135608434677124,,,-1565.0,-1047.0,1927.0,15.0,-5.0,58.0
6.156068325042725,,,-572.0,-1632.0,358.0,9.0,-12.0,54.0
6.176633834838867,,,416.0,-2254.0,-1016.0,10.0,-18.0,51.0
6.197051525115967,,,1101.0,-3034.0,-2024.0,17.0,-23.0,48.0
6.217594385147095,,,1428.0,-5401.0,-2762.0,30.0,-29.0,7.0
6.237959384918213,,,1627.0,-6940.0,-2248.0,19.0,-28.0,-34.0
6.258520841598511,,,1645.0,-7752.0,-795.0,0.0,-16.0,-74.0
6.279071092605591,,,1262.0,-6881.0,4626.0,-7.0,-13.0,-92.0
6.299449682235718,,,2350.0,-6220.0,6277.0,-21.0,-28.0,-61.0
6.319925546646118,,,5524.0,-5063.0,6778.0,-32.0,-31.0,-24.0
6.340383291244507,,,6089.0,-4601.0,6929.0,-26.0,-25.0,-13.0
6.360947608947754,,,5919.0,-4108.0,7151.0,-20.0,-23.0,-7.0
6.381347894668579,,,4897.0,-3161.0,6889.0,-21.0,-31.0,-4.0
6.4018824100494385,,,4437.0,-2726.0,6489.0,-24.0,-38.0,-12.0
6.422390699386597,,,3936.0,-2305.0,5848.0,-25.0,-45.0,-22.0
6.4429004192352295,,,2766.0,-1412.0,3095.0,-26.0,-52.0,-31.0
6.46329927444458,,,2238.0,-865.0,888.0,-29.0,-47.0,-24.0
6.483799934387207,,,1815.0,-318.0,-1589.0,-37.0,-39.0,-14.0
6.50434684753418,,,1974.0,593.0,-6520.0,-62.0,-10.0,12.0
6.524677515029907,,,2496.0,726.0,-7923.0,-67.0,4.0,21.0
6.545243978500366,,,3077.0,133.0,-8485.0,-37.0,5.0,-4.0
6.565717458724976,,,2729.0,-180.0,-8519.0,-18.0,5.0,-23.0
6.586137771606445,,,2034.0,-294.0,-8441.0,-5.0,12.0,-39.0
6.606706619262695,,,564.0,13.0,-6818.0,3.0,23.0,-63.0
6.62719988822937,,,-50.0,115.0,-4593.0,4.0,21.0,-74.0
6.647638320922852,,,-1219.0,-20.0,-45.0,18.0,-4.0,-77.0
6.66811466217041,,,-4364.0,-739.0,4151.0,-23.0,-32.0,-115.0
6.688500165939331,,,-4228.0,-1266.0,5147.0,-67.0,-15.0,-117.0
6.709113836288452,,,-2538.0,-1601.0,6945.0,-86.0,0.0,-86.0
6.729558944702148,,,1655.0,-2422.0,9831.0,-64.0,-17.0,-8.0
6.749972820281982,,,2527.0,-2532.0,9590.0,-47.0,-27.0,25.0
6.770467519760132,,,2584.0,-2380.0,8428.0,-39.0,-26.0,49.0
6.791019916534424,,,1579.0,-1860.0,5948.0,-50.0,-22.0,63.0
6.811554908752441,,,1012.0,-1754.0,4765.0,-53.0,-23.0,51.0
6.831900119781494,,,280.0,-2121.0,2297.0,-45.0,-22.0,19.0
6.852495908737183,,,0.0,-2406.0,1034.0,-34.0,-27.0,5.0
6.872835397720337,,,-538.0,-2576.0,-142.0,-23.0,-32.0,-6.0
6.8934645652771,,,-2614.0,-2018.0,-1246.0,-11.0,-44.0,-39.0
6.91376805305481,,,-3729.0,-1365.0,-748.0,-10.0,-55.0,-71.0
6.934306859970093,,,-4470.0,-695.0,190.0,-16.0,-66.0,-107.0
6.9547834396362305,,,-4820.0,353.0,1929.0,-34.0,-53.0,-187.0
6.975279092788696,,,-4696.0,829.0,3078.0,-51.0,-47.0,-217.0
6.995796203613281,,,-3718.0,1001.0,4529.0,-70.0,-47.0,-224.0
7.012193441390991,,,193.0,-675.0,7012.0,-77.0,-52.0,-189.0
7.03251314163208,,,1979.0,-2103.0,8122.0,-64.0,-49.0,-150.0
7.05312180519104,,,3334.0,-4153.0,8936.0,-31.0,-51.0,-54.0
7.073568344116211,,,2999.0,-4125.0,8289.0,-16.0,-53.0,-19.0
7.09405517578125,,,2315.0,-3511.0,7111.0,-9.0,-52.0,2.0
7.114473342895508,,,762.0,-1886.0,4316.0,-8.0,-46.0,4.0
7.135069131851196,,,87.0,-1251.0,3091.0,-12.0,-46.0,-10.0
7.155397653579712,,,-392.0,-861.0,2081.0,-15.0,-46.0,-28.0
7.1761088371276855,,,-652.0,-777.0,649.0,-17.0,-47.0,-59.0
7.196471452713013,,,-528.0,-978.0,171.0,-15.0,-46.0,-67.0
7.2169272899627686,,,-335.0,-1251.0,-162.0,-12.0,-44.0,-70.0
7.237457275390625,,,69.0,-1617.0,-503.0,-3.0,-34.0,-60.0
7.2578065395355225,,,212.0,-1518.0,-586.0,1.0,-29.0,-48.0
7.278372287750244,,,310.0,-1153.0,-573.0,4.0,-25.0,-34.0
7.29877781867981,,,404.0,122.0,23.0,3.0,-23.0,-5.0
7.319288492202759,,,338.0,903.0,560.0,0.0,-22.0,2.0
7.339883327484131,,,-243.0,3062.0,2119.0,-6.0,-11.0,3.0
7.360278367996216,,,-1094.0,3478.0,1916.0,-12.0,-7.0,-3.0
7.380818128585815,,,-1837.0,3282.0,1584.0,-22.0,-4.0,-9.0
7.401163101196289,,,-1812.0,2140.0,2518.0,-23.0,8.0,2.0
7.421656608581543,,,-1504.0,1619.0,3182.0,-17.0,11.0,21.0
7.442314386367798,,,-1265.0,1258.0,3418.0,-14.0,11.0,40.0
7.462793588638306,,,-1087.0,1300.0,2863.0,-17.0,14.0,66.0
7.483121871948242,,,-1118.0,1592.0,2394.0,-19.0,15.0,69.0
7.503614187240601,,,-1196.0,1826.0,1895.0,-22.0,16.0,65.0
7.524160385131836,,,-1361.0,1986.0,1108.0,-23.0,17.0,42.0
7.544606924057007,,,-1405.0,2070.0,1019.0,-22.0,15.0,25.0
7.565145969390869,,,-1413.0,1884.0,1121.0,-19.0,5.0,-6.0
7.5855889320373535,,,-1364.0,1586.0,1215.0,-16.0,-1.0,-16.0
7.605968236923218,,,-1301.0,1241.0,1275.0,-13.0,-5.0,-22.0
7.6265106201171875,,,-1166.0,537.0,1278.0,-10.0,-2.0,-18.0
7.647021770477295,,,-1030.0,268.0,1378.0,-10.0,2.0,-10.0
7.667567014694214,,,-871.0,86.0,1542.0,-10.0,5.0,0.0
7.687970161437988,,,-596.0,100.0,1939.0,-8.0,8.0,18.0
7.708549976348877,,,-548.0,198.0,1974.0,-8.0,8.0,22.0
7.728947401046753,,,-596.0,294.0,1888.0,-9.0,9.0,22.0
7.749404430389404,,,-780.0,528.0,1754.0,-10.0,10.0,11.0
7.770009279251099,,,-849.0,589.0,1795.0,-9.0,11.0,4.0
7.790351152420044,,,-899.0,579.0,1893.0,-7.0,10.0,-2.0
7.81082010269165,,,-951.0,397.0,2220.0,-3.0,9.0,-10.0
7.831360816955566,,,-973.0,285.0,2340.0,-2.0,9.0,-10.0
7.851867437362671,,,-925.0,88.0,2470.0,-1.0,9.0,-6.0
7.872318983078003,,,-831.0,15.0,2531.0,-1.0,9.0,-2.0
7.892868757247925,,,-747.0,-39.0,2548.0,-1.0,8.0,4.0
7.913372039794922,,,-699.0,-123.0,2316.0,-1.0,6.0,8.0
7.933757543563843,,,-720.0,-122.0,2143.0,-1.0,5.0,7.0
7.954222679138184,,,-735.0,-71.0,2008.0,0.0,4.0,5.0
7.974632740020752,,,-716.0,66.0,1874.0,1.0,2.0,-1.0
7.995298385620117,,,-697.0,68.0,1817.0,1.0,1.0,-3.0
8.015691041946411,,,-675.0,33.0,1769.0,1.0,1.0,-4.0
8.036001205444336,,,-598.0,-68.0,1730.0,2.0,1.0,-4.0
8.056688070297241,,,-558.0,-74.0,1804.0,3.0,2.0,-3.0
8.077139377593994,,,-532.0,-29.0,1894.0,3.0,3.0,-1.0
8.097612142562866,,,-541.0,26.0,1968.0,2.0,3.0,1.0
8.118137121200562,,,-569.0,44.0,2027.0,2.0,2.0,2.0
8.138644695281982,,,-601.0,69.0,2108.0,2.0,2.0,3.0
8.159060001373291,,,-622.0,119.0,2157.0,1.0,3.0,3.0
8.179504871368408,,,-668.0,195.0,2223.0,1.0,3.0,2.0
8.199987173080444,,,-714.0,218.0,2221.0,2.0,3.0,1.0
8.220562219619751,,,-788.0,217.0,2161.0,3.0,3.0,0.0
8.240915775299072,,,-854.0,165.0,1985.0,4.0,2.0,-2.0
8.261442184448242,,,-766.0,182.0,1959.0,5.0,2.0,-1.0
8.281837940216064,,,-615.0,238.0,1924.0,5.0,2.0,3.0
8.302305698394775,,,-234.0,431.0,1588.0,4.0,0.0,13.0
8.322846412658691,,,-48.0,652.0,1377.0,4.0,-1.0,16.0
8.34339451789856,,,156.0,942.0,1379.0,6.0,-4.0,17.0
8.363908767700195,,,544.0,1424.0,1565.0,10.0,-14.0,20.0
8.384278535842896,,,602.0,1504.0,1443.0,11.0,-16.0,23.0
8.404810667037964,,,549.0,1479.0,1123.0,12.0,-15.0,24.0
8.425329208374023,,,340.0,977.0,113.0,15.0,-9.0,35.0
8.445667028427124,,,306.0,770.0,-266.0,18.0,-3.0,50.0
8.466131210327148,,,50.0,1733.0,55.0,32.0,11.0,76.0
8.486621618270874,,,-448.0,2856.0,514.0,40.0,14.0,77.0
8.507177591323853,,,-1362.0,3899.0,733.0,42.0,15.0,67.0
8.527682304382324,,,-3466.0,4709.0,523.0,25.0,20.0,20.0
8.548013925552368,,,-4052.0,4624.0,450.0,17.0,23.0,-13.0
8.568626642227173,,,-4172.0,4412.0,488.0,12.0,24.0,-46.0
8.589139699935913,,,-3038.0,4127.0,1464.0,8.0,13.0,-101.0
8.609646081924438,,,-2343.0,3748.0,2065.0,2.0,-2.0,-112.0
8.629911422729492,,,-1482.0,2789.0,2145.0,-9.0,-15.0,-118.0
8.650508165359497,,,258.0,61.0,1970.0,-25.0,4.0,-109.0
8.671052694320679,,,744.0,-967.0,2430.0,-22.0,21.0,-95.0
8.691466331481934,,,841.0,-2090.0,4217.0,-13.0,37.0,-48.0
8.711863994598389,,,623.0,-2453.0,5240.0,-10.0,42.0,-22.0
8.732460260391235,,,291.0,-2797.0,6034.0,-12.0,41.0,-1.0
8.752812385559082,,,-91.0,-3806.0,6411.0,-18.0,33.0,18.0
8.77341628074646,,,-149.0,-4192.0,6083.0,-17.0,28.0,27.0
8.789819240570068,,,-136.0,-4319.0,5682.0,-15.0,20.0,35.0
8.810145378112793,,,80.0,-4076.0,4635.0,-8.0,-1.0,43.0
8.830656290054321,,,151.0,-3776.0,3801.0,-6.0,-9.0,43.0
8.851215362548828,,,157.0,-3374.0,2895.0,-5.0,-15.0,42.0
8.871576309204102,,,124.0,-2506.0,1348.0,-4.0,-24.0,33.0
8.892246007919312,,,63.0,-2132.0,741.0,-2.0,-27.0,29.0
8.912594556808472,,,-72.0,-1787.0,270.0,2.0,-30.0,24.0
8.933059930801392,,,-383.0,-994.0,-182.0,12.0,-37.0,5.0
8.95349669456482,,,-512.0,-576.0,-154.0,14.0,-39.0,-4.0
8.974011898040771,,,-778.0,-180.0,-248.0,11.0,-37.0,-17.0
8.994494438171387,,,-840.0,-118.0,-187.0,6.0,-34.0,-21.0
9.015000343322754,,,-775.0,-47.0,130.0,2.0,-31.0,-25.0
9.035448551177979,,,-465.0,23.0,1045.0,-3.0,-28.0,-21.0
9.05597710609436,,,-329.0,-35.0,1356.0,-6.0,-25.0,-17.0
9.076351404190063,,,-226.0,-45.0,1618.0,-9.0,-19.0,-14.0
9.096949100494385,,,-179.0,108.0,2325.0,-15.0,-10.0,-9.0
9.117393970489502,,,-143.0,6.0,2656.0,-17.0,-10.0,-5.0
9.137917041778564,,,-37.0,-267.0,2871.0,-19.0,-11.0,-2.0
9.15835690498352,,,152.0,-795.0,2965.0,-16.0,-12.0,-2.0
9.178963899612427,,,259.0,-891.0,2908.0,-13.0,-12.0,-3.0
9.19935131072998,,,480.0,-720.0,2721.0,-6.0,-11.0,3.0
9.219837427139282,,,559.0,-522.0,2598.0,-4.0,-10.0,7.0
9.240323066711426,,,566.0,-273.0,2462.0,-1.0,-9.0,10.0
9.260855913162231,,,502.0,-20.0,2309.0,0.0,-9.0,9.0
9.281339168548584,,,377.0,166.0,2132.0,2.0,-8.0,7.0
9.3018217086792,,,247.0,298.0,2001.0,5.0,-8.0,2.0
9.32235074043274,,,75.0,494.0,1988.0,7.0,-8.0,-8.0
9.342667818069458,,,19.0,467.0,2007.0,6.0,-8.0,-11.0
9.363257646560669,,,35.0,303.0,1991.0,4.0,-9.0,-12.0
9.383683204650879,,,143.0,-136.0,1817.0,7.0,-7.0,-11.0
9.404089450836182,,,161.0,-271.0,1746.0,10.0,-6.0,-11.0
9.424538135528564,,,181.0,-281.0,1762.0,13.0,-4.0,-12.0
9.445074319839478,,,267.0,-170.0,1863.0,20.0,-2.0,-12.0
9.465559244155884,,,362.0,-169.0,1866.0,22.0,-1.0,-11.0
9.486056089401245,,,686.0,-153.0,2115.0,26.0,0.0,-7.0
9.506596326828003,,,826.0,-63.0,2313.0,29.0,-1.0,-4.0
9.527140617370605,,,877.0,44.0,2436.0,31.0,-2.0,-3.0
9.54742169380188,,,688.0,170.0,2465.0,38.0,-2.0,-8.0
9.568018674850464,,,546.0,200.0,2459.0,41.0,-1.0,-10.0
9.588415622711182,,,412.0,248.0,2533.0,44.0,-2.0,-10.0
9.60904836654663,,,326.0,225.0,2975.0,50.0,-2.0,-2.0
9.629364728927612,,,375.0,139.0,3160.0,54.0,-3.0,4.0
9.649938106536865,,,460.0,151.0,3282.0,59.0,-2.0,11.0
9.670371770858765,,,419.0,602.0,3363.0,64.0,-2.0,25.0
9.690932273864746,,,236.0,1080.0,3330.0,63.0,-1.0,29.0
9.711332559585571,,,-254.0,1698.0,3034.0,55.0,2.0,36.0
9.731880903244019,,,-318.0,1636.0,2876.0,51.0,8.0,49.0
9.752194881439209,,,-195.0,1537.0,2729.0,49.0,12.0,61.0
9.772778987884521,,,-379.0,1611.0,2307.0,45.0,7.0,69.0
9.793229341506958,,,-811.0,1670.0,2026.0,39.0,2.0,68.0
9.813765525817871,,,-1349.0,1710.0,1773.0,33.0,-4.0,59.0
9.83423113822937,,,-2230.0,1567.0,1350.0,22.0,-13.0,23.0
9.854760646820068,,,-2414.0,1360.0,1209.0,17.0,-15.0,4.0
9.871043920516968,,,-2379.0,1114.0,1257.0,13.0,-16.0,-8.0
9.891433000564575,,,-1491.0,817.0,1720.0,7.0,-17.0,-7.0
9.912070989608765,,,-975.0,760.0,1948.0,5.0,-16.0,2.0
9.93250584602356,,,-602.0,712.0,2095.0,3.0,-13.0,9.0
9.95290756225586,,,-270.0,701.0,2231.0,-3.0,-9.0,12.0
9.973340272903442,,,-89.0,727.0,2388.0,-3.0,-11.0,7.0
9.994074583053589,,,638.0,681.0,2436.0,2.0,-8.0,1.0
10.014519691467285,,,830.0,664.0,2306.0,3.0,-5.0,5.0
10.034887552261353,,,847.0,699.0,2234.0,1.0,-2.0,9.0
10.055602788925171,,,540.0,740.0,2203.0,-1.0,0.0,9.0
10.07576584815979,,,328.0,649.0,2107.0,-2.0,1.0,7.0
10.096319437026978,,,135.0,511.0,2002.0,-3.0,1.0,4.0
10.116861343383789,,,-172.0,373.0,2033.0,-4.0,0.0,-1.0
10.13731074333191,,,-238.0,383.0,2164.0,-5.0,-1.0,-4.0
10.15787124633789,,,-222.0,451.0,2321.0,-7.0,-2.0,-6.0
10.17837381362915,,,-143.0,539.0,2613.0,-9.0,-3.0,-7.0
10.198692321777344,,,-36.0,518.0,2701.0,-9.0,-3.0,-6.0
10.219268560409546,,,179.0,440.0,2754.0,-9.0,-2.0,-1.0
10.239660501480103,,,270.0,438.0,2787.0,-9.0,-2.0,2.0
10.260156393051147,,,333.0,458.0,2837.0,-9.0,-3.0,3.0
10.280668020248413,,,328.0,439.0,2779.0,-8.0,-3.0,2.0
10.301130533218384,,,311.0,403.0,2724.0,-8.0,-3.0,1.0
10.321615934371948,,,295.0,367.0,2716.0,-7.0,-4.0,0.0
10.342251777648926,,,359.0,342.0,2648.0,-5.0,-4.0,-1.0
10.362531423568726,,,398.0,361.0,2611.0,-5.0,-4.0,-1.0
10.383149862289429,,,427.0,388.0,2578.0,-5.0,-4.0,-1.0
10.403538942337036,,,324.0,470.0,2553.0,-5.0,-4.0,-4.0
10.424076557159424,,,245.0,476.0,2605.0,-5.0,-4.0,-6.0
10.444506168365479,,,241.0,453.0,2628.0,-4.0,-5.0,-6.0
10.465001821517944,,,365.0,314.0,2591.0,-4.0,-3.0,-2.0
10.485563278198242,,,425.0,272.0,2576.0,-5.0,-2.0,-1.0
10.50594162940979,,,436.0,323.0,2600.0,-4.0,-2.0,-4.0
10.526525259017944,,,391.0,336.0,2573.0,-4.0,-2.0,-5.0
10.546906232833862,,,308.0,301.0,2518.0,-4.0,-1.0,-4.0
10.571481466293335,,,226.0,137.0,2417.0,-5.0,3.0,-1.0
10.587761163711548,,,198.0,72.0,2395.0,-5.0,5.0,1.0
10.60828971862793,,,40.0,260.0,2532.0,-4.0,2.0,-1.0
10.628808736801147,,,-59.0,415.0,2689.0,-4.0,-2.0,-4.0
10.649257898330688,,,-132.0,464.0,2781.0,-5.0,-4.0,-7.0
10.669759511947632,,,-139.0,334.0,2802.0,-6.0,-6.0,-10.0
10.690176963806152,,,-100.0,284.0,2796.0,-6.0,-6.0,-8.0
10.710846662521362,,,-27.0,283.0,2827.0,-7.0,-6.0,-5.0
10.73119568824768,,,177.0,323.0,2921.0,-8.0,-8.0,2.0
10.751741409301758,,,294.0,310.0,2878.0,-8.0,-7.0,2.0
10.772092819213867,,,327.0,301.0,2811.0,-7.0,-7.0,1.0
10.792639017105103,,,292.0,290.0,2692.0,-6.0,-6.0,-2.0
10.81310486793518,,,333.0,305.0,2679.0,-6.0,-6.0,-3.0
10.833653211593628,,,415.0,295.0,2677.0,-5.0,-5.0,-2.0
10.854298114776611,,,400.0,265.0,2646.0,-4.0,-4.0,-1.0
10.87455701828003,,,356.0,265.0,2624.0,-4.0,-3.0,0.0
10.895133972167969,,,223.0,351.0,2673.0,-4.0,-3.0,1.0
10.915580749511719,,,163.0,352.0,2686.0,-4.0,-3.0,1.0
10.936017751693726,,,115.0,288.0,2671.0,-4.0,-2.0,1.0
10.95640254020691,,,143.0,111.0,2653.0,-2.0,-3.0,1.0
10.976881265640259,,,219.0,80.0,2676.0,-1.0,-3.0,3.0
10.99755573272705,,,284.0,105.0,2682.0,0.0,-2.0,5.0
11.017952919006348,,,259.0,238.0,2581.0,0.0,-1.0,6.0
11.038409233093262,,,177.0,287.0,2500.0,-1.0,-1.0,4.0
11.059043169021606,,,87.0,335.0,2458.0,-1.0,0.0,2.0
11.079401016235352,,,29.0,412.0,2505.0,-2.0,0.0,-2.0
11.099758386611938,,,69.0,388.0,2583.0,-2.0,0.0,-3.0
11.120319604873657,,,145.0,253.0,2733.0,-2.0,0.0,-2.0
11.140796899795532,,,157.0,193.0,2753.0,-2.0,0.0,0.0
11.161303997039795,,,142.0,149.0,2742.0,-1.0,0.0,1.0
11.181764841079712,,,107.0,137.0,2657.0,-1.0,0.0,2.0
11.202268838882446,,,104.0,160.0,2623.0,-1.0,1.0,2.0
11.222758054733276,,,104.0,181.0,2613.0,-1.0,1.0,1.0
11.243314981460571,,,73.0,203.0,2617.0,-1.0,1.0,-2.0
11.26364541053772,,,45.0,212.0,2635.0,-1.0,1.0,-3.0
11.284209251403809,,,38.0,205.0,2671.0,-1.0,0.0,-4.0
11.304586410522461,,,76.0,175.0,2731.0,0.0,0.0,-3.0
11.325161218643188,,,89.0,158.0,2732.0,1.0,0.0,-2.0
11.345608949661255,,,25.0,153.0,2726.0,1.0,0.0,-2.0
11.366095066070557,,,-12.0,166.0,2752.0,1.0,0.0,-2.0
11.386516094207764,,,-26.0,182.0,2771.0,1.0,0.0,-2.0
11.406990051269531,,,5.0,155.0,2813.0,1.0,-1.0,-1.0
11.427567720413208,,,47.0,118.0,2826.0,1.0,-2.0,-1.0
11.447974920272827,,,78.0,110.0,2816.0,1.0,-2.0,0.0
11.468516826629639,,,51.0,159.0,2737.0,2.0,-1.0,1.0
11.48889946937561,,,0.0,180.0,2663.0,1.0,-1.0,1.0
11.509385585784912,,,-38.0,178.0,2577.0,1.0,-1.0,0.0
11.5299654006958,,,-35.0,168.0,2479.0,0.0,-1.0,-3.0
11.550429344177246,,,-28.0,204.0,2493.0,0.0,-1.0,-5.0
11.57088565826416,,,-28.0,262.0,2546.0,-1.0,0.0,-7.0
11.59128189086914,,,-68.0,192.0,2602.0,-2.0,0.0,-7.0
11.611924409866333,,,-84.0,106.0,2614.0,-2.0,0.0,-6.0
11.632238388061523,,,-25.0,2.0,2735.0,0.0,-1.0,-3.0
11.652828693389893,,,-44.0,-28.0,2698.0,0.0,0.0,0.0
11.66908049583435,,,-103.0,-31.0,2638.0,-1.0,0.0,1.0
11.689612865447998,,,-136.0,59.0,2588.0,-1.0,1.0,2.0
11.710097551345825,,,-86.0,83.0,2542.0,-1.0,5.0,6.0
11.730596780776978,,,-21.0,51.0,2550.0,-3.0,9.0,11.0
11.7510347366333,,,109.0,7.0,2753.0,-5.0,5.0,13.0
11.771484851837158,,,-23.0,125.0,2785.0,-3.0,0.0,9.0
11.792113780975342,,,-310.0,267.0,2711.0,-3.0,-4.0,1.0
11.812540769577026,,,-663.0,332.0,2473.0,-7.0,-7.0,-17.0
11.833109855651855,,,-616.0,266.0,2451.0,-8.0,-8.0,-20.0
11.853385210037231,,,-340.0,204.0,2647.0,-9.0,-9.0,-16.0
11.873982191085815,,,-247.0,188.0,2739.0,-10.0,-10.0,-14.0
11.894341707229614,,,-186.0,160.0,2780.0,-11.0,-10.0,-12.0
11.914955377578735,,,-85.0,61.0,2698.0,-10.0,-8.0,-8.0
11.935382843017578,,,-40.0,42.0,2699.0,-10.0,-8.0,-7.0
11.955853939056396,,,56.0,57.0,2726.0,-9.0,-7.0,-6.0
11.97630786895752,,,232.0,101.0,2736.0,-7.0,-6.0,-3.0
11.996884107589722,,,259.0,109.0,2712.0,-7.0,-6.0,-2.0
12.017292976379395,,,232.0,115.0,2686.0,-7.0,-5.0,-1.0
12.037766695022583,,,108.0,98.0,2650.0,-6.0,-4.0,-2.0
12.058279037475586,,,93.0,66.0,2624.0,-5.0,-5.0,-2.0
12.07878041267395,,,135.0,67.0,2624.0,-4.0,-4.0,-3.0
12.099172353744507,,,193.0,195.0,2703.0,-3.0,-4.0,-3.0
12.11975383758545,,,140.0,205.0,2666.0,-2.0,-4.0,-4.0
12.140159130096436,,,-25.0,132.0,2496.0,-1.0,-3.0,-5.0
12.160640478134155,,,-24.0,162.0,2534.0,-1.0,-3.0,-5.0
12.181145668029785,,,21.0,214.0,2626.0,-1.0,-3.0,-6.0
12.201649904251099,,,110.0,283.0,2762.0,-1.0,-3.0,-6.0
12.222068309783936,,,109.0,286.0,2762.0,-1.0,-4.0,-6.0
12.242571353912354,,,81.0,284.0,2750.0,0.0,-4.0,-5.0
12.263132572174072,,,88.0,324.0,2736.0,-1.0,-4.0,-3.0
12.283471822738647,,,104.0,344.0,2729.0,-2.0,-4.0,-2.0
12.30403184890747,,,99.0,314.0,2690.0,-2.0,-4.0,-2.0
12.324461460113525,,,63.0,251.0,2617.0,-2.0,-4.0,-3.0
12.345000982284546,,,65.0,235.0,2617.0,-2.0,-3.0,-3.0
12.365422010421753,,,105.0,139.0,2578.0,-1.0,-3.0,-1.0
12.385880470275879,,,140.0,91.0,2546.0,-1.0,-2.0,0.0
12.40644121170044,,,178.0,84.0,2531.0,0.0,-2.0,1.0
12.426911354064941,,,74.0,112.0,2394.0,0.0,-1.0,1.0
12.447310447692871,,,-19.0,107.0,2333.0,0.0,0.0,-2.0
12.467970848083496,,,-70.0,89.0,2317.0,0.0,0.0,-3.0
12.488301038742065,,,-16.0,57.0,2321.0,1.0,1.0,-4.0
12.508962869644165,,,47.0,61.0,2347.0,1.0,2.0,-5.0
12.529247283935547,,,45.0,49.0,2336.0,1.0,3.0,-7.0
12.5498526096344,,,-90.0,-49.0,2352.0,2.0,4.0,-11.0
12.570265054702759,,,-67.0,-74.0,2396.0,3.0,4.0,-10.0
12.59064793586731,,,31.0,-48.0,2506.0,3.0,5.0,-8.0
12.611187219619751,,,243.0,145.0,2919.0,1.0,6.0,-1.0
12.631661415100098,,,230.0,147.0,3055.0,1.0,7.0,2.0
12.652143478393555,,,70.0,-98.0,2921.0,2.0,8.0,8.0
12.672595739364624,,,10.0,-141.0,2865.0,4.0,7.0,11.0
12.693134546279907,,,-15.0,-91.0,2848.0,5.0,6.0,13.0
12.713544130325317,,,-131.0,61.0,2636.0,4.0,5.0,14.0
12.734212398529053,,,-222.0,89.0,2446.0,3.0,4.0,12.0
12.750436544418335,,,-284.0,87.0,2236.0,3.0,3.0,8.0
12.770965576171875,,,-387.0,120.0,1997.0,3.0,3.0,-2.0
12.791534423828125,,,-461.0,183.0,2023.0,3.0,2.0,-9.0
12.811890125274658,,,-486.0,174.0,2101.0,1.0,1.0,-15.0
12.832484245300293,,,-223.0,-78.0,2307.0,0.0,1.0,-17.0
12.85295844078064,,,-18.0,-189.0,2517.0,-1.0,2.0,-13.0
12.873373746871948,,,86.0,-570.0,2682.0,-1.0,2.0,-5.0
12.893799781799316,,,2.0,-840.0,2473.0,0.0,2.0,-2.0
12.91435956954956,,,-62.0,-1014.0,2299.0,1.0,0.0,-1.0
12.934993743896484,,,19.0,-921.0,2139.0,5.0,-4.0,-2.0
12.955301761627197,,,23.0,-846.0,2083.0,3.0,-4.0,-4.0
12.975725412368774,,,-43.0,-901.0,2020.0,1.0,-4.0,-7.0
12.996139764785767,,,-221.0,-1174.0,1903.0,2.0,-8.0,-14.0
13.016738176345825,,,-219.0,-1226.0,1888.0,3.0,-9.0,-15.0
13.037257432937622,,,-188.0,-1196.0,1947.0,2.0,-10.0,-15.0
13.05764389038086,,,-2.0,-1102.0,2234.0,-3.0,-11.0,-16.0
13.082263946533203,,,55.0,-1208.0,2368.0,-6.0,-12.0,-18.0
13.10262393951416,,,64.0,-1777.0,2448.0,-7.0,-12.0,-28.0
13.123331785202026,,,78.0,-2021.0,2562.0,-6.0,-12.0,-34.0
13.143696546554565,,,120.0,-2151.0,2777.0,-5.0,-11.0,-36.0
13.16421365737915,,,69.0,-2299.0,3247.0,-8.0,-8.0,-37.0
13.184589624404907,,,-46.0,-2351.0,3419.0,-11.0,-7.0,-39.0
13.205224990844727,,,-193.0,-2350.0,3611.0,-14.0,-6.0,-42.0
13.225782871246338,,,-170.0,-2463.0,3935.0,-20.0,-5.0,-48.0
13.246091604232788,,,-4.0,-2584.0,4121.0,-22.0,-5.0,-47.0
13.266653299331665,,,361.0,-2925.0,4271.0,-23.0,-3.0,-35.0
13.286944389343262,,,508.0,-3050.0,4123.0,-18.0,0.0,-29.0
13.307528734207153,,,631.0,-3115.0,3719.0,-11.0,8.0,-22.0
13.327987670898438,,,781.0,-2691.0,1942.0,-4.0,35.0,-7.0
13.34851336479187,,,663.0,-1965.0,1169.0,-7.0,45.0,-6.0
13.368961095809937,,,353.0,-815.0,960.0,-8.0,54.0,-11.0
13.389405488967896,,,-1659.0,2744.0,2827.0,6.0,30.0,-49.0
13.409917831420898,,,-2740.0,3778.0,3147.0,7.0,10.0,-67.0
13.430378675460815,,,-3111.0,3505.0,2742.0,-1.0,0.0,-66.0
13.450939655303955,,,-2269.0,2063.0,2401.0,-7.0,1.0,-38.0
13.467376470565796,,,-1736.0,1982.0,2790.0,-8.0,-1.0,-16.0
13.487638473510742,,,-1339.0,2269.0,3117.0,-9.0,-6.0,7.0
13.508156538009644,,,-819.0,2914.0,2877.0,-16.0,-8.0,24.0
13.52877402305603,,,-698.0,2940.0,2467.0,-19.0,-8.0,12.0
13.549060344696045,,,-405.0,1680.0,1893.0,-16.0,-14.0,-19.0
13.569644212722778,,,-199.0,579.0,2379.0,-7.0,-27.0,-25.0
13.590240240097046,,,1367.0,-634.0,2522.0,13.0,-22.0,-44.0
13.610558271408081,,,2915.0,-1508.0,2149.0,27.0,20.0,1.0
13.631032228469849,,,2435.0,-1104.0,2205.0,25.0,20.0,42.0
13.65158462524414,,,1733.0,-819.0,2110.0,28.0,12.0,62.0
13.672068119049072,,,399.0,-1082.0,1110.0,39.0,-13.0,46.0
13.692648887634277,,,272.0,-1517.0,569.0,40.0,-19.0,16.0
13.712902784347534,,,642.0,-1626.0,542.0,45.0,-18.0,-22.0
13.733643293380737,,,1607.0,-385.0,2430.0,69.0,-3.0,-49.0
13.754120588302612,,,980.0,149.0,3214.0,73.0,-2.0,-41.0
13.774466514587402,,,-776.0,96.0,3657.0,70.0,-7.0,-13.0
13.79487419128418,,,-1063.0,64.0,3984.0,75.0,-12.0,9.0
13.815487623214722,,,-726.0,546.0,3960.0,82.0,-11.0,26.0
13.835771799087524,,,-1436.0,2974.0,2914.0,53.0,-12.0,43.0
13.856370687484741,,,-2418.0,3675.0,2097.0,33.0,-28.0,29.0
13.876819610595703,,,-2999.0,3453.0,947.0,27.0,-42.0,1.0
13.897358417510986,,,-4284.0,2951.0,-1137.0,24.0,-36.0,-27.0
13.917778491973877,,,-5435.0,3697.0,-1640.0,15.0,-36.0,-27.0
13.938309669494629,,,-6633.0,4655.0,-2371.0,6.0,-38.0,-32.0
13.958818912506104,,,-7683.0,5158.0,-4235.0,-22.0,-56.0,-44.0
13.979232549667358,,,-7255.0,4142.0,-4968.0,-36.0,-77.0,-51.0
13.999741554260254,,,-5919.0,2851.0,-5103.0,-45.0,-82.0,-59.0
14.02031922340393,,,-3707.0,3968.0,-1915.0,-29.0,-62.0,-121.0
14.040655136108398,,,-3969.0,6609.0,547.0,-34.0,-78.0,-180.0
14.061137437820435,,,-3067.0,7132.0,4382.0,-71.0,-79.0,-125.0
14.081572532653809,,,-2295.0,5442.0,5644.0,-85.0,-71.0,-51.0
14.102208375930786,,,-1403.0,3548.0,6303.0,-85.0,-54.0,18.0
14.122658491134644,,,-701.0,2321.0,6097.0,-66.0,-30.0,65.0
14.143166303634644,,,-796.0,3079.0,5306.0,-65.0,-34.0,37.0
14.163618087768555,,,-666.0,3759.0,4059.0,-69.0,-35.0,5.0
14.184122085571289,,,-583.0,4076.0,1907.0,-89.0,-36.0,-20.0
14.204454898834229,,,-501.0,3538.0,1670.0,-89.0,-38.0,-29.0
14.225026369094849,,,-313.0,2864.0,2112.0,-77.0,-40.0,-46.0
14.24564266204834,,,198.0,1963.0,3112.0,-59.0,-39.0,-73.0
14.265894889831543,,,252.0,1887.0,3004.0,-64.0,-33.0,-64.0
14.286389827728271,,,112.0,2039.0,2888.0,-78.0,-27.0,-24.0
14.306865692138672,,,-143.0,1668.0,2956.0,-70.0,-29.0,-9.0
14.32741379737854,,,-610.0,1113.0,2736.0,-57.0,-29.0,-2.0
14.347800016403198,,,-1035.0,519.0,1635.0,-47.0,-24.0,4.0
14.368378400802612,,,-976.0,524.0,1161.0,-53.0,-17.0,9.0
14.388906240463257,,,-1061.0,612.0,1248.0,-54.0,-17.0,16.0
14.409278869628906,,,-1498.0,493.0,1895.0,-25.0,-32.0,22.0
14.429824352264404,,,-1471.0,581.0,1457.0,-15.0,-32.0,21.0
14.450318813323975,,,-1172.0,995.0,934.0,-17.0,-31.0,15.0
14.470766067504883,,,-234.0,1903.0,1696.0,-23.0,-42.0,-9.0
14.491304874420166,,,160.0,1527.0,2214.0,-16.0,-47.0,-12.0
14.511707305908203,,,505.0,972.0,2192.0,-8.0,-45.0,-5.0
14.532179355621338,,,847.0,1219.0,1216.0,-15.0,-36.0,16.0
14.548582553863525,,,785.0,1726.0,1013.0,-21.0,-35.0,11.0
14.56910252571106,,,699.0,2000.0,1294.0,-15.0,-32.0,-3.0
14.589538097381592,,,732.0,1951.0,1321.0,-15.0,-29.0,-1.0
14.610077619552612,,,718.0,1944.0,1163.0,-19.0,-25.0,2.0
14.630503416061401,,,429.0,2009.0,1164.0,-25.0,-24.0,-11.0
14.650911569595337,,,265.0,1862.0,1473.0,-20.0,-27.0,-20.0
14.671326637268066,,,274.0,1640.0,1554.0,-12.0,-27.0,-21.0
14.69184422492981,,,570.0,1720.0,963.0,-16.0,-22.0,-13.0
14.712396383285522,,,648.0,1900.0,697.0,-22.0,-21.0,-13.0
14.732792615890503,,,753.0,2012.0,478.0,-24.0,-19.0,-17.0
14.753351926803589,,,758.0,1964.0,567.0,-20.0,-20.0,-35.0
14.77381157875061,,,624.0,1682.0,981.0,-14.0,-22.0,-39.0
14.794247388839722,,,703.0,1392.0,1949.0,-6.0,-25.0,-30.0
14.81487250328064,,,743.0,1414.0,2056.0,-12.0,-25.0,-21.0
14.835326433181763,,,614.0,1312.0,1876.0,-19.0,-21.0,-11.0
14.855719566345215,,,-54.0,897.0,1846.0,-24.0,-17.0,0.0
14.87621521949768,,,-268.0,738.0,2067.0,-18.0,-17.0,3.0
14.896779775619507,,,-234.0,818.0,2207.0,-12.0,-18.0,3.0
14.917191505432129,,,62.0,1269.0,2370.0,-13.0,-19.0,-4.0
14.937665939331055,,,149.0,1321.0,2507.0,-13.0,-21.0,-7.0
14.95815134048462,,,156.0,1309.0,2604.0,-11.0,-21.0,-6.0
14.978712797164917,,,141.0,1228.0,2586.0,-7.0,-21.0,-1.0
14.999108791351318,,,166.0,1271.0,2683.0,-6.0,-21.0,2.0
15.01971983909607,,,206.0,1356.0,2728.0,-6.0,-22.0,6.0
15.040023803710938,,,303.0,1301.0,2315.0,-7.0,-19.0,9.0
15.06054949760437,,,335.0,1307.0,2112.0,-7.0,-18.0,7.0
15.081090211868286,,,278.0,1371.0,1876.0,-7.0,-19.0,-1.0
15.101562023162842,,,267.0,1369.0,1921.0,-6.0,-19.0,-5.0
15.122068166732788,,,239.0,1308.0,2009.0,-5.0,-19.0,-9.0
15.142647743225098,,,112.0,786.0,2289.0,-2.0,-17.0,-2.0
15.162936210632324,,,92.0,659.0,2386.0,-1.0,-17.0,4.0
15.18339729309082,,,117.0,736.0,2321.0,-1.0,-17.0,9.0
15.203860759735107,,,129.0,1056.0,2056.0,-2.0,-17.0,5.0
15.224337100982666,,,117.0,1067.0,2071.0,-1.0,-17.0,2.0
15.244937419891357,,,156.0,1052.0,2149.0,0.0,-17.0,1.0
15.26540470123291,,,262.0,939.0,2273.0,0.0,-17.0,0.0
15.28583574295044,,,258.0,839.0,2241.0,1.0,-16.0,1.0
15.306441307067871,,,269.0,680.0,2191.0,3.0,-14.0,3.0
15.326852798461914,,,351.0,686.0,2207.0,4.0,-13.0,5.0
15.34725308418274,,,464.0,759.0,2188.0,3.0,-12.0,7.0
15.367699384689331,,,586.0,971.0,2157.0,2.0,-10.0,6.0
15.388119459152222,,,588.0,1035.0,2134.0,1.0,-9.0,5.0
15.40873098373413,,,577.0,1038.0,2103.0,0.0,-8.0,3.0
15.429344654083252,,,615.0,1004.0,2077.0,-2.0,-6.0,3.0
15.44954514503479,,,570.0,1010.0,2106.0,-3.0,-5.0,1.0
15.470266819000244,,,478.0,971.0,2171.0,-2.0,-5.0,-1.0
15.490677118301392,,,361.0,772.0,2434.0,-1.0,-4.0,-1.0
15.511061668395996,,,390.0,694.0,2540.0,-1.0,-4.0,2.0
15.531625747680664,,,439.0,707.0,2563.0,-2.0,-4.0,5.0
15.552031517028809,,,412.0,737.0,2408.0,-2.0,-3.0,3.0
15.572539567947388,,,382.0,694.0,2398.0,0.0,-2.0,0.0
15.593098163604736,,,473.0,699.0,2589.0,2.0,-4.0,-2.0
15.613544940948486,,,452.0,702.0,2576.0,1.0,-4.0,-1.0
15.633957386016846,,,408.0,678.0,2488.0,0.0,-3.0,1.0
15.654571056365967,,,456.0,744.0,2316.0,0.0,-1.0,4.0
15.674857378005981,,,468.0,797.0,2207.0,-1.0,-1.0,3.0
15.695496559143066,,,447.0,803.0,2216.0,0.0,0.0,-1.0
15.715806722640991,,,450.0,817.0,2266.0,0.0,0.0,-2.0
15.73638129234314,,,439.0,834.0,2277.0,0.0,0.0,-3.0
15.756770849227905,,,497.0,776.0,2249.0,-2.0,1.0,-2.0
15.777349472045898,,,559.0,727.0,2224.0,-3.0,2.0,-2.0
15.79784893989563,,,586.0,739.0,2254.0,-4.0,3.0,-1.0
15.818250179290771,,,487.0,758.0,2397.0,-4.0,3.0,-4.0
15.838905811309814,,,398.0,700.0,2476.0,-4.0,3.0,-5.0
15.859218835830688,,,359.0,601.0,2519.0,-3.0,2.0,-4.0
15.879815578460693,,,450.0,552.0,2366.0,-3.0,4.0,-1.0
15.900148630142212,,,510.0,626.0,2199.0,-5.0,5.0,-1.0
15.920664310455322,,,426.0,700.0,1984.0,-6.0,7.0,-8.0
15.941300392150879,,,331.0,594.0,2132.0,-5.0,7.0,-11.0
15.96162462234497,,,282.0,431.0,2385.0,-3.0,5.0,-9.0
15.98227071762085,,,292.0,314.0,2577.0,-2.0,5.0,0.0
16.002734184265137,,,335.0,437.0,2579.0,-4.0,5.0,2.0
16.023155450820923,,,345.0,580.0,2665.0,-5.0,4.0,0.0
16.043608903884888,,,292.0,610.0,2791.0,-4.0,2.0,-3.0
16.064039945602417,,,205.0,517.0,2953.0,-2.0,1.0,-5.0
16.08447003364563,,,173.0,369.0,3076.0,0.0,0.0,-3.0
16.10493230819702,,,268.0,272.0,3004.0,0.0,-2.0,3.0
16.125516653060913,,,275.0,258.0,2847.0,0.0,-2.0,3.0
16.1460018157959,,,246.0,211.0,2735.0,1.0,-2.0,3.0
16.16648840904236,,,325.0,156.0,2637.0,3.0,-2.0,4.0
16.186996936798096,,,381.0,208.0,2538.0,2.0,-2.0,4.0
16.207396268844604,,,394.0,278.0,2379.0,2.0,-2.0,3.0
16.22788166999817,,,411.0,347.0,2357.0,2.0,-2.0,4.0
16.24838662147522,,,404.0,462.0,2346.0,1.0,-2.0,4.0
16.268882036209106,,,309.0,548.0,2412.0,0.0,-2.0,2.0
16.289239406585693,,,283.0,474.0,2469.0,1.0,-2.0,3.0
16.309895515441895,,,299.0,396.0,2495.0,1.0,-2.0,5.0
16.33017611503601,,,362.0,407.0,2420.0,0.0,-2.0,6.0
16.346611499786377,,,327.0,431.0,2361.0,-1.0,-2.0,4.0
16.367132425308228,,,266.0,409.0,2319.0,-1.0,-1.0,2.0
16.387651920318604,,,198.0,293.0,2375.0,0.0,-1.0,0.0
16.40798854827881,,,187.0,226.0,2469.0,0.0,-2.0,0.0
16.440869569778442,,,137.0,26.0,2546.0,2.0,-2.0,7.0
16.461438417434692,,,202.0,64.0,2623.0,2.0,-3.0,7.0
16.48194432258606,,,269.0,71.0,2630.0,0.0,-3.0,8.0
16.502206802368164,,,292.0,47.0,2566.0,-3.0,-2.0,12.0
16.523048877716064,,,248.0,62.0,2297.0,-3.0,0.0,16.0
16.543195724487305,,,266.0,121.0,2184.0,-3.0,1.0,15.0
16.56379270553589,,,275.0,170.0,2157.0,-3.0,1.0,12.0
16.584166049957275,,,270.0,152.0,2199.0,-4.0,1.0,4.0
16.604710340499878,,,247.0,90.0,2245.0,-5.0,2.0,3.0
16.625120401382446,,,213.0,18.0,2309.0,-5.0,2.0,1.0
16.645782709121704,,,81.0,-63.0,2588.0,-3.0,1.0,-1.0
16.66608476638794,,,22.0,-84.0,2738.0,-2.0,0.0,-1.0
16.68652892112732,,,-13.0,-105.0,2791.0,-2.0,0.0,1.0
16.707037925720215,,,-14.0,-60.0,2718.0,-1.0,1.0,2.0
16.727611303329468,,,3.0,-20.0,2698.0,-1.0,0.0,0.0
16.7480788230896,,,-197.0,34.0,2259.0,-4.0,2.0,-3.0
16.768569707870483,,,-567.0,7.0,1912.0,-5.0,4.0,-8.0
16.784993171691895,,,-1003.0,-24.0,1629.0,-4.0,3.0,-18.0
16.805402517318726,,,-1303.0,-106.0,1439.0,2.0,2.0,-47.0
16.82592749595642,,,-1097.0,-220.0,1439.0,4.0,4.0,-51.0
16.84642267227173,,,-944.0,-407.0,1412.0,2.0,8.0,-40.0
16.866840600967407,,,-1129.0,-646.0,1373.0,-1.0,16.0,-26.0
16.887264728546143,,,-1156.0,-639.0,1518.0,-1.0,17.0,-26.0
16.90784978866577,,,-1134.0,-688.0,1857.0,3.0,17.0,-25.0
16.928223609924316,,,-1508.0,-777.0,2767.0,9.0,9.0,-29.0
16.948691368103027,,,-1851.0,-877.0,3098.0,11.0,7.0,-29.0
16.969157457351685,,,-2134.0,-958.0,3286.0,13.0,6.0,-21.0
16.989681720733643,,,-2249.0,-888.0,3287.0,16.0,5.0,-8.0
17.01016855239868,,,-2175.0,-589.0,3080.0,19.0,4.0,4.0
17.030625581741333,,,-1800.0,674.0,2279.0,19.0,2.0,13.0
17.051053524017334,,,-1688.0,1487.0,1985.0,14.0,-1.0,14.0
17.071555614471436,,,-1612.0,2324.0,1826.0,7.0,-5.0,12.0
17.092101573944092,,,-1454.0,4039.0,1564.0,-11.0,-21.0,-3.0
17.112646102905273,,,-1463.0,4777.0,1379.0,-19.0,-31.0,-12.0
17.13302206993103,,,-1494.0,5358.0,1183.0,-25.0,-38.0,-24.0
17.153484106063843,,,-963.0,6251.0,1154.0,-43.0,-52.0,-60.0
17.174091339111328,,,-428.0,6281.0,1783.0,-55.0,-62.0,-76.0
17.194417238235474,,,147.0,5903.0,2893.0,-62.0,-75.0,-90.0
17.214929342269897,,,1425.0,4762.0,5920.0,-54.0,-117.0,-127.0
17.235445261001587,,,1256.0,3701.0,6917.0,-53.0,-134.0,-142.0
17.25595450401306,,,-1011.0,294.0,9145.0,-31.0,-132.0,-144.0
17.276413679122925,,,-1218.0,-1001.0,9882.0,-3.0,-122.0,-106.0
17.296886444091797,,,-941.0,-2353.0,10020.0,18.0,-111.0,-50.0
17.317389249801636,,,-1947.0,-4954.0,8578.0,38.0,-75.0,7.0
17.337890625,,,-3382.0,-5627.0,7686.0,59.0,-40.0,-1.0
17.358349800109863,,,-4225.0,-5913.0,7299.0,105.0,-12.0,-15.0
17.378742933273315,,,-1351.0,-2158.0,10107.0,215.0,-47.0,-115.0
17.399399042129517,,,26.0,-158.0,8111.0,219.0,-30.0,-102.0
17.419896841049194,,,824.0,1466.0,4463.0,190.0,29.0,3.0
17.440282583236694,,,3124.0,2462.0,-3030.0,81.0,97.0,220.0
17.460758209228516,,,4297.0,2607.0,-6125.0,28.0,105.0,282.0
17.481232404708862,,,6024.0,5580.0,-8315.0,-17.0,7.0,92.0
17.50164484977722,,,4813.0,7286.0,-9503.0,11.0,-10.0,-27.0
17.522174835205078,,,2975.0,8552.0,-10845.0,3.0,-4.0,-105.0
17.542532920837402,,,4057.0,2186.0,-8917.0,-24.0,22.0,-302.0
17.563127517700195,,,5878.0,-1751.0,-3926.0,3.0,21.0,-321.0
17.583564043045044,,,6413.0,-2284.0,1014.0,8.0,4.0,-242.0
17.604134559631348,,,1914.0,-1878.0,6561.0,-2.0,-14.0,-52.0
17.624701499938965,,,146.0,-2496.0,7561.0,1.0,3.0,31.0
17.645087957382202,,,542.0,-3290.0,7952.0,1.0,16.0,103.0
17.665560483932495,,,3273.0,-3915.0,6252.0,6.0,5.0,124.0
17.685985803604126,,,3915.0,-3185.0,4689.0,19.0,-3.0,82.0
17.706517696380615,,,3796.0,-2166.0,3281.0,16.0,-9.0,24.0
17.72705864906311,,,2473.0,-1646.0,3497.0,4.0,-4.0,-31.0
17.74758529663086,,,2190.0,-1430.0,4392.0,9.0,0.0,-24.0
17.767945289611816,,,2132.0,-156.0,4906.0,4.0,3.0,27.0
17.788460969924927,,,1729.0,330.0,4402.0,-1.0,3.0,58.0
17.808961629867554,,,1016.0,562.0,3369.0,3.0,3.0,77.0
17.829370975494385,,,179.0,1159.0,635.0,22.0,1.0,110.0
17.849878787994385,,,338.0,1783.0,-1112.0,22.0,-6.0,135.0
17.866271018981934,,,668.0,2950.0,-3544.0,8.0,-8.0,166.0
17.886781454086304,,,1190.0,7353.0,-7834.0,-26.0,-6.0,122.0
17.90721106529236,,,1207.0,9599.0,-8708.0,-30.0,-6.0,25.0
17.927650213241577,,,1051.0,10472.0,-8756.0,-53.0,-11.0,-83.0
17.9481520652771,,,2560.0,7013.0,-6860.0,-80.0,-11.0,-269.0
17.968719244003296,,,4804.0,3566.0,-5117.0,-51.0,-10.0,-336.0
17.989062547683716,,,9057.0,-786.0,3163.0,-14.0,-38.0,-314.0
18.00952982902527,,,7149.0,-12.0,6313.0,-52.0,-73.0,-211.0
18.030022144317627,,,2719.0,1017.0,8035.0,-50.0,-64.0,-101.0
18.05058741569519,,,-2063.0,592.0,9281.0,1.0,-14.0,77.0
18.071101903915405,,,-1767.0,-347.0,9254.0,6.0,2.0,125.0
18.09562849998474,,,803.0,-1508.0,7434.0,29.0,0.0,131.0
18.116193294525146,,,1837.0,-1349.0,5959.0,36.0,-4.0,109.0
18.136538982391357,,,2387.0,-729.0,4156.0,27.0,-3.0,77.0
18.157088041305542,,,1966.0,273.0,368.0,-5.0,19.0,-3.0
18.177491903305054,,,1289.0,557.0,-912.0,-13.0,33.0,-34.0
18.198103666305542,,,556.0,783.0,-1368.0,-9.0,44.0,-52.0
18.218458890914917,,,-598.0,905.0,-1432.0,31.0,53.0,-36.0
18.238989114761353,,,-770.0,884.0,-1955.0,49.0,50.0,1.0
18.25952458381653,,,-876.0,812.0,-2927.0,55.0,40.0,48.0
18.279913425445557,,,-1922.0,502.0,-5157.0,33.0,11.0,98.0
18.300384521484375,,,-2809.0,482.0,-5999.0,17.0,2.0,40.0
18.320897340774536,,,-2910.0,817.0,-6603.0,-3.0,7.0,-71.0
18.341399908065796,,,1270.0,642.0,-6088.0,-50.0,9.0,-239.0
18.36192536354065,,,3983.0,-687.0,-4165.0,-74.0,12.0,-263.0
18.382272958755493,,,7471.0,-2887.0,3824.0,-68.0,20.0,-154.0
18.402865409851074,,,7165.0,-2431.0,6512.0,-70.0,3.0,-62.0
18.423243761062622,,,4820.0,-2555.0,7628.0,-76.0,2.0,10.0
18.44366192817688,,,30.0,-3835.0,7289.0,-53.0,51.0,102.0
18.464123964309692,,,-757.0,-3536.0,6257.0,-39.0,63.0,123.0
18.48467469215393,,,-680.0,-2823.0,5099.0,-27.0,63.0,133.0
18.505224227905273,,,722.0,-1815.0,2197.0,-7.0,65.0,158.0
18.5258526802063,,,1484.0,-1171.0,814.0,-1.0,68.0,169.0
18.546085357666016,,,2109.0,-403.0,-190.0,5.0,71.0,173.0
18.566582202911377,,,2701.0,1323.0,-1764.0,25.0,58.0,157.0
18.58296036720276,,,2392.0,2178.0,-2692.0,35.0,43.0,145.0
18.603611707687378,,,786.0,3380.0,-4545.0,59.0,22.0,86.0
18.623958587646484,,,69.0,3645.0,-5356.0,69.0,16.0,32.0
18.644450187683105,,,-208.0,3490.0,-5979.0,73.0,17.0,-30.0
18.66493034362793,,,1978.0,1695.0,-6558.0,54.0,44.0,-162.0
18.68551206588745,,,4928.0,222.0,-4922.0,37.0,74.0,-221.0
18.705962657928467,,,7511.0,-246.0,-266.0,28.0,72.0,-258.0
18.72651433944702,,,3892.0,-2231.0,5709.0,-62.0,78.0,-129.0
18.746898651123047,,,847.0,-3240.0,6495.0,-81.0,121.0,-19.0
18.767374277114868,,,-965.0,-3807.0,7092.0,-68.0,157.0,70.0
18.78788733482361,,,-519.0,-3863.0,7870.0,-48.0,165.0,180.0
18.808293342590332,,,635.0,-3417.0,6869.0,-41.0,152.0,205.0
18.8287136554718,,,1457.0,-2383.0,5353.0,-30.0,136.0,209.0
18.849228858947754,,,521.0,1018.0,2325.0,-8.0,88.0,114.0
18.86956524848938,,,-724.0,2136.0,1003.0,-11.0,68.0,57.0
18.890159368515015,,,-2501.0,871.0,-1016.0,-15.0,69.0,23.0
18.91080927848816,,,-2645.0,-553.0,-1376.0,-13.0,75.0,38.0
18.93114185333252,,,-2292.0,-1765.0,-1296.0,-6.0,74.0,69.0
18.95169949531555,,,-948.0,-2251.0,-524.0,15.0,57.0,146.0
18.972014904022217,,,-205.0,-1179.0,-284.0,23.0,46.0,153.0
18.99259352684021,,,224.0,767.0,-149.0,25.0,37.0,135.0
19.01307702064514,,,-288.0,4354.0,-940.0,-7.0,33.0,40.0
19.033546209335327,,,-445.0,4143.0,-1146.0,-31.0,38.0,-8.0
19.05399441719055,,,-360.0,2831.0,-369.0,-39.0,40.0,-43.0
19.074515104293823,,,-306.0,-271.0,2595.0,-23.0,18.0,-60.0
19.094926595687866,,,-520.0,-1261.0,3411.0,-23.0,8.0,-38.0
19.1155264377594,,,-1177.0,-2443.0,2798.0,-28.0,9.0,12.0
19.135946035385132,,,-1469.0,-2551.0,2043.0,-29.0,14.0,27.0
19.15633249282837,,,-1763.0,-2580.0,1502.0,-31.0,15.0,33.0
19.17691397666931,,,-2036.0,-2917.0,1334.0,-25.0,11.0,34.0
19.197344303131104,,,-1921.0,-2961.0,1362.0,-18.0,9.0,33.0
19.217825889587402,,,-1766.0,-2727.0,1397.0,-12.0,5.0,34.0
19.23829698562622,,,-1646.0,-2182.0,1452.0,-7.0,-1.0,35.0
19.2588529586792,,,-1580.0,-789.0,1205.0,-11.0,-9.0,20.0
19.279388904571533,,,-1611.0,-451.0,973.0,-15.0,-8.0,0.0
19.29984951019287,,,-1498.0,-1072.0,735.0,-20.0,-7.0,-40.0
19.32024359703064,,,-1443.0,-1833.0,794.0,-17.0,-8.0,-48.0
19.34084916114807,,,-1432.0,-2603.0,905.0,-11.0,-8.0,-41.0
19.36117935180664,,,-1599.0,-3089.0,980.0,-1.0,-2.0,2.0
19.381661891937256,,,-1729.0,-2712.0,888.0,2.0,2.0,19.0
19.40214228630066,,,-2029.0,-2016.0,688.0,3.0,9.0,19.0
19.422653198242188,,,-2189.0,-1899.0,708.0,1.0,11.0,9.0
19.443208932876587,,,-2319.0,-1910.0,792.0,-2.0,10.0,-1.0
19.463500499725342,,,-2266.0,-2237.0,812.0,-3.0,8.0,-9.0
19.484039306640625,,,-2190.0,-2363.0,893.0,-3.0,6.0,-6.0
19.504522800445557,,,-2076.0,-2471.0,998.0,-4.0,5.0,-1.0
19.525107622146606,,,-1702.0,-2545.0,1143.0,-2.0,6.0,7.0
19.54560923576355,,,-1499.0,-2278.0,1373.0,1.0,6.0,6.0
19.566041231155396,,,-1311.0,-1751.0,1753.0,3.0,4.0,3.0
19.586429119110107,,,-1169.0,-799.0,2239.0,-5.0,-6.0,-5.0
19.606999158859253,,,-1211.0,-918.0,2134.0,-10.0,-8.0,-12.0
19.627463340759277,,,-1291.0,-1898.0,1974.0,-10.0,-4.0,-13.0
19.643853902816772,,,-1323.0,-2305.0,1908.0,-8.0,-1.0,-5.0
19.664425134658813,,,-1342.0,-2450.0,1781.0,-5.0,2.0,8.0
19.684884071350098,,,-1372.0,-1985.0,1431.0,-5.0,6.0,26.0
19.705402851104736,,,-1441.0,-1671.0,1283.0,-6.0,6.0,27.0
19.725795030593872,,,-1523.0,-1489.0,1162.0,-6.0,4.0,22.0
19.746265411376953,,,-1561.0,-1418.0,1111.0,-1.0,0.0,4.0
19.76675057411194,,,-1536.0,-1382.0,1140.0,1.0,-3.0,-5.0
19.78716278076172,,,-1485.0,-1367.0,1146.0,1.0,-5.0,-11.0
19.807601928710938,,,-1335.0,-1516.0,1221.0,-1.0,-5.0,-11.0
19.82817029953003,,,-1282.0,-1613.0,1351.0,-2.0,-4.0,-6.0
19.848547220230103,,,-1236.0,-1679.0,1494.0,-3.0,-3.0,-1.0
19.869173049926758,,,-1250.0,-1700.0,1670.0,-5.0,-2.0,6.0
19.889585256576538,,,-1251.0,-1718.0,1637.0,-5.0,-1.0,7.0
19.909992694854736,,,-1214.0,-1697.0,1593.0,-2.0,-1.0,6.0
19.93049669265747,,,-1210.0,-1593.0,1609.0,-1.0,-2.0,4.0
19.950961589813232,,,-1248.0,-1510.0,1574.0,-1.0,-3.0,0.0
19.971489667892456,,,-1299.0,-1609.0,1447.0,2.0,-4.0,-8.0
19.99196457862854,,,-1242.0,-1641.0,1464.0,4.0,-4.0,-7.0
20.01238441467285,,,-1163.0,-1573.0,1500.0,4.0,-3.0,-4.0
20.032906532287598,,,-1043.0,-1407.0,1442.0,0.0,-3.0,3.0
20.053337574005127,,,-1030.0,-1383.0,1374.0,-1.0,-2.0,5.0
20.07388472557068,,,-1023.0,-1379.0,1317.0,-1.0,-2.0,5.0
20.094341278076172,,,-1044.0,-1299.0,1286.0,0.0,-1.0,3.0
20.114819049835205,,,-1071.0,-1231.0,1281.0,-1.0,-1.0,2.0
20.13543677330017,,,-1084.0,-1117.0,1343.0,-2.0,-1.0,-1.0
20.155882596969604,,,-1066.0,-1091.0,1416.0,-2.0,-1.0,-2.0
20.176291942596436,,,-1036.0,-1106.0,1482.0,-2.0,-1.0,-2.0
20.196911334991455,,,-959.0,-1176.0,1614.0,-2.0,-1.0,0.0
20.217220306396484,,,-914.0,-1196.0,1666.0,-2.0,-1.0,1.0
20.237674951553345,,,-867.0,-1215.0,1696.0,-2.0,-1.0,2.0
20.25819230079651,,,-817.0,-1218.0,1692.0,-2.0,-1.0,3.0
20.27884817123413,,,-799.0,-1199.0,1672.0,-2.0,0.0,3.0
20.29921793937683,,,-789.0,-1191.0,1634.0,-1.0,0.0,2.0
20.319628715515137,,,-773.0,-1176.0,1580.0,1.0,0.0,0.0
20.340085983276367,,,-745.0,-1120.0,1593.0,1.0,0.0,0.0
20.360750675201416,,,-740.0,-1050.0,1581.0,1.0,-1.0,0.0
20.381065130233765,,,-768.0,-952.0,1523.0,1.0,-1.0,0.0
20.40165662765503,,,-776.0,-890.0,1517.0,0.0,0.0,0.0
20.422006607055664,,,-749.0,-803.0,1531.0,-1.0,0.0,-2.0
20.442591190338135,,,-713.0,-798.0,1573.0,-1.0,0.0,-2.0
20.463093996047974,,,-678.0,-824.0,1615.0,-1.0,0.0,-1.0
20.483450889587402,,,-628.0,-857.0,1609.0,-2.0,1.0,-1.0
20.503934860229492,,,-629.0,-868.0,1596.0,-2.0,1.0,-2.0
20.524476289749146,,,-640.0,-900.0,1599.0,-1.0,1.0,-2.0
20.544906854629517,,,-647.0,-972.0,1630.0,-1.0,0.0,-3.0
20.565372467041016,,,-665.0,-978.0,1638.0,-1.0,0.0,-1.0
20.585787057876587,,,-666.0,-963.0,1636.0,-1.0,1.0,-1.0
20.606341123580933,,,-701.0,-890.0,1662.0,-1.0,1.0,0.0
20.62676692008972,,,-726.0,-887.0,1657.0,-1.0,0.0,0.0
20.64736008644104,,,-691.0,-914.0,1569.0,0.0,1.0,1.0
20.671931743621826,,,-636.0,-870.0,1536.0,0.0,2.0,1.0
20.69234871864319,,,-589.0,-796.0,1526.0,0.0,2.0,2.0
20.712798357009888,,,-564.0,-719.0,1507.0,-1.0,2.0,2.0
20.733418941497803,,,-545.0,-650.0,1493.0,-1.0,2.0,1.0
20.75401210784912,,,-519.0,-597.0,1578.0,0.0,1.0,-2.0
20.77415919303894,,,-513.0,-601.0,1630.0,1.0,1.0,-2.0
20.794705867767334,,,-526.0,-628.0,1637.0,1.0,2.0,-2.0
20.81539559364319,,,-537.0,-653.0,1640.0,0.0,2.0,0.0
20.831656455993652,,,-545.0,-651.0,1652.0,-1.0,1.0,0.0
20.852056741714478,,,-539.0,-673.0,1660.0,-1.0,0.0,0.0
20.87261462211609,,,-487.0,-743.0,1691.0,-2.0,0.0,0.0
20.893112421035767,,,-471.0,-768.0,1662.0,-1.0,0.0,1.0
20.913483381271362,,,-452.0,-769.0,1603.0,-1.0,0.0,1.0
20.933937311172485,,,-400.0,-735.0,1524.0,0.0,1.0,1.0
20.954419374465942,,,-384.0,-706.0,1545.0,0.0,1.0,1.0
20.974908590316772,,,-405.0,-617.0,1617.0,0.0,1.0,2.0
20.995423793792725,,,-426.0,-561.0,1624.0,-1.0,1.0,2.0
21.016093492507935,,,-432.0,-507.0,1616.0,-1.0,1.0,2.0
21.036357164382935,,,-425.0,-513.0,1620.0,0.0,1.0,0.0
21.056867361068726,,,-418.0,-536.0,1639.0,0.0,1.0,0.0
21.077382564544678,,,-427.0,-551.0,1667.0,0.0,0.0,0.0
21.097827196121216,,,-438.0,-561.0,1657.0,0.0,-1.0,0.0
21.118402004241943,,,-424.0,-563.0,1635.0,0.0,0.0,0.0
21.138816595077515,,,-397.0,-555.0,1622.0,0.0,0.0,0.0
21.159417867660522,,,-355.0,-526.0,1616.0,1.0,0.0,1.0
21.17991304397583,,,-351.0,-515.0,1607.0,1.0,0.0,0.0
21.200344800949097,,,-373.0,-481.0,1584.0,0.0,0.0,0.0
21.22081685066223,,,-376.0,-479.0,1561.0,-1.0,0.0,0.0
21.241257905960083,,,-354.0,-509.0,1543.0,-1.0,0.0,0.0
21.261685848236084,,,-306.0,-510.0,1580.0,-1.0,1.0,1.0
21.28214454650879,,,-295.0,-468.0,1613.0,0.0,0.0,1.0
21.302687168121338,,,-293.0,-406.0,1647.0,-1.0,0.0,0.0
21.323107481002808,,,-314.0,-427.0,1656.0,-2.0,0.0,-1.0
21.34371042251587,,,-313.0,-490.0,1645.0,-2.0,0.0,-1.0
21.364070653915405,,,-317.0,-545.0,1645.0,-1.0,0.0,-1.0
21.38458275794983,,,-287.0,-547.0,1682.0,0.0,-1.0,0.0
21.4051034450531,,,-288.0,-486.0,1691.0,0.0,-1.0,0.0
21.425712823867798,,,-287.0,-430.0,1674.0,-1.0,-1.0,0.0
21.446097135543823,,,-295.0,-438.0,1646.0,-1.0,-1.0,-1.0
21.46660017967224,,,-274.0,-504.0,1654.0,0.0,-1.0,0.0
21.486931324005127,,,-239.0,-491.0,1641.0,0.0,-1.0,2.0
21.507535934448242,,,-227.0,-394.0,1629.0,0.0,-1.0,2.0
21.527950763702393,,,-226.0,-325.0,1631.0,-1.0,-1.0,1.0
21.548401594161987,,,-227.0,-370.0,1643.0,-1.0,-1.0,0.0
21.56880784034729,,,-229.0,-394.0,1636.0,0.0,-1.0,-1.0
21.589438438415527,,,-223.0,-380.0,1657.0,1.0,-1.0,-1.0
21.609837532043457,,,-234.0,-350.0,1710.0,0.0,-1.0,0.0
21.630414724349976,,,-250.0,-366.0,1717.0,0.0,-2.0,0.0
21.650959730148315,,,-258.0,-381.0,1710.0,0.0,-2.0,0.0
21.671310901641846,,,-230.0,-374.0,1659.0,1.0,-1.0,1.0
21.691800594329834,,,-210.0,-344.0,1654.0,1.0,-1.0,1.0
21.712149381637573,,,-197.0,-334.0,1686.0,1.0,-2.0,0.0
21.732766151428223,,,-190.0,-336.0,1699.0,1.0,-2.0,0.0
21.753182649612427,,,-176.0,-308.0,1693.0,1.0,-2.0,0.0
21.77364492416382,,,-184.0,-290.0,1603.0,0.0,-1.0,0.0
21.794183254241943,,,-179.0,-277.0,1595.0,1.0,-1.0,0.0
21.81460475921631,,,-192.0,-255.0,1617.0,1.0,-1.0,0.0
21.835209131240845,,,-183.0,-254.0,1614.0,0.0,-2.0,0.0
21.855494022369385,,,-166.0,-248.0,1602.0,1.0,-2.0,0.0
21.876140356063843,,,-165.0,-227.0,1614.0,0.0,-2.0,0.0
21.892516374588013,,,-167.0,-170.0,1626.0,0.0,-2.0,-1.0
21.9129159450531,,,-171.0,-180.0,1581.0,-1.0,-2.0,-1.0
21.93340277671814,,,-165.0,-212.0,1541.0,-1.0,-2.0,-1.0
21.953922748565674,,,-163.0,-211.0,1542.0,-1.0,-1.0,-2.0
21.974364280700684,,,-175.0,-204.0,1547.0,-1.0,-1.0,-2.0
21.99480366706848,,,-134.0,-205.0,1574.0,-1.0,-1.0,-2.0
22.015406847000122,,,-86.0,-193.0,1626.0,-1.0,0.0,-1.0
22.035783290863037,,,-63.0,-159.0,1676.0,-1.0,-1.0,0.0
22.056448459625244,,,-69.0,-103.0,1707.0,-3.0,-1.0,-1.0
22.07685613632202,,,-77.0,-99.0,1708.0,-3.0,-1.0,-2.0
22.097306489944458,,,-89.0,-106.0,1713.0,-2.0,-1.0,-4.0
22.117793560028076,,,-91.0,-189.0,1720.0,-1.0,-2.0,-5.0
22.138238191604614,,,-103.0,-224.0,1721.0,0.0,-2.0,-5.0
22.15877914428711,,,-125.0,-249.0,1732.0,0.0,-2.0,-5.0
22.1791775226593,,,-110.0,-229.0,1822.0,0.0,-2.0,-3.0
22.199592113494873,,,-113.0,-162.0,1855.0,0.0,-3.0,-2.0
22.220160961151123,,,-163.0,-124.0,1763.0,-1.0,-2.0,-2.0
22.240620136260986,,,-162.0,-143.0,1726.0,-1.0,-2.0,-3.0
22.261214017868042,,,-151.0,-140.0,1717.0,0.0,-2.0,-2.0
22.281575441360474,,,-150.0,-94.0,1712.0,0.0,-3.0,-3.0
22.3022882938385,,,-162.0,-98.0,1687.0,0.0,-3.0,-4.0
22.32258415222168,,,-175.0,-126.0,1652.0,-1.0,-3.0,-4.0
22.343092441558838,,,-170.0,-210.0,1625.0,0.0,-2.0,-3.0
22.363425970077515,,,-166.0,-218.0,1657.0,0.0,-2.0,-2.0
22.38405728340149,,,-158.0,-195.0,1699.0,0.0,-2.0,-2.0
22.404497146606445,,,-149.0,-180.0,1690.0,0.0,-2.0,-1.0
22.424927234649658,,,-147.0,-175.0,1674.0,0.0,-1.0,-1.0
22.445380926132202,,,-153.0,-138.0,1642.0,0.0,-1.0,-1.0
22.46581768989563,,,-161.0,-61.0,1648.0,0.0,-1.0,-2.0
22.486252784729004,,,-144.0,-41.0,1679.0,0.0,-1.0,-3.0
22.50686812400818,,,-145.0,-74.0,1739.0,-1.0,0.0,-2.0
22.527270078659058,,,-192.0,-171.0,1694.0,-1.0,0.0,-1.0
22.547876358032227,,,-245.0,-280.0,1608.0,0.0,1.0,0.0
22.56831669807434,,,-256.0,-230.0,1598.0,1.0,2.0,0.0
22.588744640350342,,,-206.0,-110.0,1698.0,0.0,1.0,0.0
22.609236240386963,,,-148.0,-46.0,1770.0,-1.0,0.0,1.0
22.629781484603882,,,-81.0,-116.0,1720.0,-2.0,0.0,1.0
22.650262594223022,,,-48.0,-119.0,1664.0,0.0,0.0,0.0
22.670653581619263,,,-20.0,-112.0,1652.0,1.0,0.0,-2.0
22.69109845161438,,,38.0,-112.0,1768.0,1.0,-1.0,-2.0
22.71165657043457,,,43.0,-130.0,1783.0,1.0,-1.0,-1.0
22.732213497161865,,,-45.0,-95.0,1659.0,1.0,0.0,2.0
22.75265097618103,,,-87.0,-71.0,1599.0,2.0,0.0,1.0
22.773024797439575,,,-95.0,-72.0,1584.0,2.0,1.0,1.0
22.79357886314392,,,-85.0,19.0,1607.0,2.0,1.0,1.0
22.814165115356445,,,-118.0,76.0,1560.0,1.0,0.0,0.0
22.83449625968933,,,-170.0,80.0,1531.0,0.0,0.0,-1.0
22.854883909225464,,,-145.0,14.0,1610.0,0.0,1.0,-3.0
22.875425100326538,,,-93.0,2.0,1723.0,1.0,1.0,-2.0
22.89598512649536,,,-58.0,-3.0,1783.0,1.0,1.0,-1.0
22.91637396812439,,,-68.0,-50.0,1733.0,0.0,1.0,1.0
22.936870574951172,,,-91.0,-94.0,1694.0,0.0,1.0,1.0
22.957335472106934,,,-101.0,-123.0,1674.0,0.0,1.0,0.0
22.973758220672607,,,-128.0,-104.0,1657.0,1.0,2.0,0.0
22.99422550201416,,,-147.0,-66.0,1640.0,1.0,1.0,-1.0
23.014631509780884,,,-141.0,-13.0,1574.0,1.0,1.0,-3.0
23.035192251205444,,,-119.0,-23.0,1551.0,1.0,2.0,-3.0
23.055579900741577,,,-83.0,-53.0,1558.0,1.0,2.0,-3.0
23.076087713241577,,,-61.0,-73.0,1540.0,1.0,2.0,-1.0
23.09663414955139,,,-57.0,-61.0,1520.0,0.0,2.0,-1.0
23.121190786361694,,,-55.0,-49.0,1521.0,0.0,2.0,-1.0
23.141823530197144,,,-51.0,-40.0,1515.0,0.0,3.0,-1.0
23.162155628204346,,,-67.0,-36.0,1517.0,-1.0,3.0,-1.0
23.18271541595459,,,-40.0,-83.0,1538.0,-1.0,3.0,-1.0
23.203144788742065,,,-6.0,-87.0,1581.0,-1.0,2.0,-2.0
23.223746061325073,,,28.0,-76.0,1599.0,-1.0,2.0,-2.0
23.244052410125732,,,77.0,-165.0,1589.0,0.0,1.0,-3.0
23.264676332473755,,,77.0,-290.0,1512.0,1.0,1.0,-4.0
23.28503704071045,,,114.0,-466.0,1366.0,1.0,0.0,-6.0
23.305569887161255,,,241.0,-863.0,1184.0,3.0,-3.0,-3.0
23.32605004310608,,,274.0,-941.0,1363.0,7.0,-9.0,3.0
23.34641981124878,,,594.0,-708.0,1093.0,17.0,-14.0,11.0
23.367044925689697,,,880.0,-250.0,869.0,19.0,-13.0,9.0
23.3874294757843,,,1136.0,261.0,873.0,21.0,-14.0,4.0
23.407979726791382,,,987.0,789.0,1142.0,26.0,-26.0,-10.0
23.428497791290283,,,802.0,849.0,1117.0,28.0,-34.0,-15.0
23.44886016845703,,,837.0,970.0,783.0,29.0,-36.0,-17.0
23.46929955482483,,,1602.0,1512.0,-18.0,29.0,-22.0,-21.0
23.489871978759766,,,2101.0,1829.0,-169.0,29.0,-17.0,-27.0
23.510488510131836,,,2457.0,2018.0,-193.0,27.0,-15.0,-34.0
23.530794143676758,,,2479.0,1764.0,13.0,15.0,-22.0,-40.0
23.551252365112305,,,2378.0,1475.0,160.0,11.0,-25.0,-43.0
23.57179307937622,,,2459.0,1232.0,170.0,8.0,-22.0,-43.0
23.59242296218872,,,3280.0,1110.0,397.0,-4.0,-9.0,-33.0
23.612754344940186,,,3809.0,1212.0,677.0,-14.0,-5.0,-22.0
23.63334894180298,,,4815.0,1150.0,831.0,-40.0,5.0,11.0
23.653655529022217,,,5149.0,1203.0,690.0,-55.0,11.0,23.0
23.674122095108032,,,5295.0,1370.0,508.0,-67.0,18.0,29.0
23.690488815307617,,,5037.0,894.0,-172.0,-88.0,35.0,39.0
23.711034059524536,,,4639.0,-103.0,-733.0,-94.0,45.0,49.0
23.731581926345825,,,4089.0,-1419.0,-1321.0,-92.0,54.0,62.0
23.7519268989563,,,2389.0,-3193.0,-1574.0,-67.0,51.0,72.0
23.772367238998413,,,1688.0,-3688.0,-1317.0,-49.0,47.0,73.0
23.79290223121643,,,1105.0,-3756.0,-936.0,-26.0,46.0,70.0
23.81341528892517,,,-407.0,-3394.0,707.0,9.0,39.0,67.0
23.833956241607666,,,-1034.0,-3191.0,1925.0,15.0,36.0,79.0
23.854241609573364,,,-1786.0,-2113.0,4292.0,11.0,33.0,114.0
23.874868869781494,,,-1926.0,-1142.0,5195.0,7.0,29.0,123.0
23.895286560058594,,,-2122.0,-102.0,5715.0,3.0,23.0,122.0
23.915815114974976,,,-2848.0,1357.0,6145.0,3.0,7.0,80.0
23.936315298080444,,,-3152.0,1566.0,6090.0,4.0,-2.0,42.0
23.956756114959717,,,-3167.0,1273.0,5926.0,4.0,-13.0,5.0
23.977336883544922,,,-2086.0,-426.0,5229.0,3.0,-35.0,-43.0
23.997673273086548,,,-1185.0,-1292.0,4379.0,3.0,-40.0,-45.0
24.018131732940674,,,-132.0,-1914.0,3114.0,3.0,-37.0,-34.0
24.038954257965088,,,2155.0,-2254.0,208.0,5.0,-12.0,4.0
24.0592999458313,,,3243.0,-1981.0,-969.0,9.0,5.0,27.0
24.079742670059204,,,3994.0,-1617.0,-2039.0,12.0,17.0,49.0
24.10010004043579,,,4283.0,-1481.0,-3211.0,17.0,26.0,63.0
24.120647430419922,,,4275.0,-1785.0,-4437.0,25.0,35.0,70.0
24.141228437423706,,,4265.0,-2550.0,-6476.0,52.0,64.0,77.0
24.161540985107422,,,4454.0,-2111.0,-6833.0,65.0,81.0,77.0
24.182093381881714,,,4902.0,-807.0,-6105.0,79.0,99.0,77.0
24.202534914016724,,,4843.0,4130.0,92.0,120.0,109.0,90.0
24.223104238510132,,,3108.0,6071.0,2252.0,96.0,94.0,91.0
24.24352216720581,,,1332.0,6750.0,3826.0,64.0,94.0,80.0
24.26398253440857,,,-222.0,4652.0,5829.0,31.0,106.0,85.0
24.284504890441895,,,164.0,3224.0,6426.0,37.0,111.0,118.0
24.30499029159546,,,179.0,2721.0,7327.0,50.0,113.0,158.0
24.32539439201355,,,-1274.0,3039.0,8019.0,57.0,96.0,216.0
24.346019983291626,,,-2567.0,3138.0,7774.0,49.0,81.0,217.0
24.36634659767151,,,-5477.0,2362.0,6445.0,28.0,58.0,165.0
24.386974811553955,,,-6215.0,1302.0,5062.0,21.0,45.0,128.0
24.407395839691162,,,-6143.0,212.0,3342.0,18.0,33.0,89.0
24.427883863449097,,,-4584.0,-1403.0,-156.0,18.0,16.0,16.0
24.44823670387268,,,-3509.0,-1948.0,-1718.0,16.0,12.0,-11.0
24.46877431869507,,,-2535.0,-2348.0,-3109.0,10.0,11.0,-29.0
24.4891619682312,,,-1010.0,-2754.0,-4896.0,-9.0,17.0,-26.0
24.5097074508667,,,-285.0,-2884.0,-5103.0,-13.0,25.0,-6.0
24.5302095413208,,,442.0,-3035.0,-4751.0,-9.0,33.0,19.0
24.550763845443726,,,925.0,-3383.0,-2038.0,30.0,33.0,59.0
24.571109294891357,,,330.0,-3408.0,-46.0,46.0,21.0,62.0
24.59168553352356,,,-695.0,-3434.0,1760.0,43.0,15.0,54.0
24.61206078529358,,,-1565.0,-4055.0,3612.0,-23.0,12.0,-12.0
24.63255286216736,,,-18.0,-4324.0,3369.0,-42.0,11.0,-38.0
24.65314555168152,,,3280.0,-4362.0,4005.0,-13.0,20.0,-31.0
24.6735417842865,,,3284.0,-4186.0,5087.0,0.0,18.0,-19.0
24.694114923477173,,,2820.0,-3980.0,5673.0,-5.0,8.0,-17.0
24.714500665664673,,,2605.0,-3432.0,4392.0,-34.0,-10.0,-19.0
24.734943151474,,,2843.0,-2990.0,2886.0,-45.0,-17.0,-14.0
24.755481719970703,,,3091.0,-2469.0,1230.0,-50.0,-20.0,-7.0
24.77177882194519,,,3107.0,-1289.0,-1821.0,-50.0,-18.0,0.0
24.79249620437622,,,2967.0,-715.0,-3150.0,-49.0,-14.0,-4.0
24.812877893447876,,,3081.0,-318.0,-4332.0,-47.0,-9.0,-10.0
24.833337545394897,,,4264.0,-7.0,-6377.0,-29.0,0.0,-19.0
24.85378623008728,,,4807.0,3.0,-7075.0,-17.0,7.0,-18.0
24.874155044555664,,,5129.0,85.0,-7092.0,3.0,31.0,4.0
24.894685983657837,,,5134.0,383.0,-5975.0,15.0,50.0,29.0
24.915284156799316,,,5245.0,1194.0,-2735.0,46.0,72.0,62.0
24.93582582473755,,,3910.0,1182.0,2050.0,94.0,61.0,101.0
24.95615863800049,,,-1017.0,-317.0,5554.0,40.0,33.0,70.0
24.976736068725586,,,-1322.0,-1891.0,6591.0,13.0,38.0,36.0
24.99703884124756,,,537.0,-3776.0,8050.0,0.0,36.0,13.0
25.017648458480835,,,1709.0,-3920.0,7715.0,4.0,27.0,33.0
25.03821635246277,,,2421.0,-3794.0,6598.0,12.0,20.0,53.0
25.058537244796753,,,1906.0,-3327.0,3931.0,14.0,12.0,63.0
25.079251050949097,,,977.0,-3164.0,3129.0,10.0,8.0,55.0
25.09952425956726,,,-216.0,-3082.0,2583.0,3.0,2.0,43.0
25.120021104812622,,,-2084.0,-3252.0,1323.0,-16.0,-5.0,18.0
25.14052128791809,,,-2432.0,-3406.0,408.0,-23.0,-8.0,6.0
25.161081552505493,,,-2611.0,-3753.0,-1477.0,-23.0,-14.0,-18.0
25.181513786315918,,,-2865.0,-3950.0,-2390.0,-21.0,-19.0,-32.0
25.201904296875,,,-3216.0,-4144.0,-3165.0,-18.0,-25.0,-46.0
25.222342491149902,,,-3922.0,-4475.0,-3167.0,-7.0,-45.0,-92.0
25.242899417877197,,,-4368.0,-4443.0,-2121.0,-5.0,-55.0,-122.0
25.263364553451538,,,-4947.0,-4024.0,-292.0,-10.0,-58.0,-153.0
25.28378462791443,,,-5346.0,-2043.0,5023.0,-39.0,-51.0,-203.0
25.304249048233032,,,-4157.0,-1130.0,6764.0,-82.0,-56.0,-213.0
25.324783325195312,,,-881.0,-911.0,8423.0,-106.0,-53.0,-207.0
25.345242023468018,,,5256.0,-3019.0,8286.0,-84.0,-49.0,-146.0
25.365867137908936,,,6602.0,-3700.0,7396.0,-66.0,-58.0,-102.0
25.386303186416626,,,6814.0,-3215.0,4588.0,-41.0,-79.0,-33.0
25.406732082366943,,,6357.0,-2839.0,2470.0,-39.0,-85.0,-18.0
25.42734980583191,,,5888.0,-2731.0,106.0,-36.0,-84.0,-8.0
25.447651386260986,,,4552.0,-2473.0,-4496.0,-26.0,-69.0,19.0
25.468172311782837,,,3532.0,-1830.0,-6117.0,-21.0,-54.0,30.0
25.488536596298218,,,2195.0,-861.0,-6795.0,-17.0,-41.0,34.0
25.509057760238647,,,-651.0,430.0,-6807.0,-8.0,-47.0,-2.0
25.52961277961731,,,-1603.0,322.0,-7189.0,-9.0,-49.0,-29.0
25.550077438354492,,,-2089.0,-7.0,-7449.0,-9.0,-43.0,-55.0
25.570571422576904,,,-1900.0,648.0,-4634.0,16.0,-27.0,-102.0
25.59097695350647,,,-2019.0,2242.0,-441.0,53.0,-27.0,-120.0
25.611649751663208,,,-3445.0,4000.0,2596.0,36.0,-50.0,-145.0
25.632011890411377,,,-2703.0,3862.0,7328.0,-108.0,-32.0,-194.0
25.652366161346436,,,-232.0,357.0,9778.0,-113.0,-10.0,-149.0
25.672865867614746,,,2175.0,-5911.0,12004.0,-81.0,-7.0,3.0
25.693392276763916,,,2582.0,-6829.0,11436.0,-60.0,-19.0,49.0
25.71396803855896,,,2510.0,-6440.0,10111.0,-46.0,-22.0,75.0
25.73440146446228,,,1427.0,-4048.0,7343.0,-30.0,-19.0,73.0
25.754966020584106,,,766.0,-2843.0,6236.0,-25.0,-22.0,60.0
25.77549934387207,,,-535.0,-1135.0,4190.0,-21.0,-33.0,28.0
25.795839309692383,,,-1062.0,-643.0,3213.0,-20.0,-37.0,7.0
25.81636643409729,,,-1367.0,-358.0,2387.0,-18.0,-39.0,-13.0
25.836896181106567,,,-1353.0,-156.0,1237.0,-13.0,-41.0,-35.0
25.857304334640503,,,-1179.0,-231.0,760.0,-12.0,-41.0,-40.0
25.87778949737549,,,-997.0,-423.0,279.0,-11.0,-40.0,-42.0
25.898309469223022,,,-689.0,-917.0,-382.0,-8.0,-30.0,-41.0
25.918803453445435,,,-544.0,-1020.0,-355.0,-5.0,-25.0,-40.0
25.939241409301758,,,-455.0,-1009.0,-179.0,-4.0,-20.0,-39.0
25.959671020507812,,,-382.0,-1088.0,236.0,-6.0,-11.0,-32.0
25.980109930038452,,,-356.0,-1189.0,517.0,-5.0,-7.0,-25.0
26.000773429870605,,,-306.0,-1216.0,864.0,-3.0,-2.0,-16.0
26.02118420600891,,,-357.0,-855.0,1515.0,3.0,3.0,-1.0
26.041582107543945,,,-459.0,-614.0,1738.0,4.0,5.0,3.0
26.06199288368225,,,-647.0,30.0,2463.0,0.0,8.0,4.0
26.082621097564697,,,-740.0,291.0,2827.0,-3.0,6.0,3.0
26.103045225143433,,,-847.0,346.0,3002.0,-5.0,2.0,2.0
26.123473167419434,,,-947.0,153.0,2854.0,-1.0,-3.0,-1.0
26.14417791366577,,,-913.0,173.0,2717.0,1.0,-6.0,-1.0
26.164435863494873,,,-807.0,319.0,2626.0,2.0,-7.0,1.0
26.184996604919434,,,-560.0,765.0,2473.0,-1.0,-8.0,7.0
26.205599784851074,,,-471.0,951.0,2424.0,-2.0,-8.0,7.0
26.225922346115112,,,-412.0,1115.0,2371.0,-3.0,-8.0,6.0
26.24639129638672,,,-388.0,1324.0,2261.0,-4.0,-9.0,-2.0
26.266923666000366,,,-311.0,1317.0,2259.0,-5.0,-10.0,-6.0
26.28741216659546,,,-43.0,1123.0,2298.0,-7.0,-11.0,-8.0
26.30802035331726,,,68.0,978.0,2260.0,-6.0,-11.0,-7.0
26.32832431793213,,,171.0,840.0,2203.0,-5.0,-11.0,-3.0
26.348737955093384,,,252.0,701.0,2077.0,-1.0,-10.0,4.0
26.369333267211914,,,232.0,713.0,2009.0,0.0,-11.0,6.0
26.38969850540161,,,196.0,777.0,1959.0,0.0,-11.0,8.0
26.410253047943115,,,-31.0,940.0,1721.0,-1.0,-13.0,7.0
26.43059015274048,,,-253.0,884.0,1446.0,-4.0,-13.0,3.0
26.451126098632812,,,-467.0,739.0,1175.0,-6.0,-13.0,-3.0
26.4716796875,,,-539.0,392.0,1095.0,-7.0,-14.0,-20.0
26.49210810661316,,,-320.0,207.0,1317.0,-6.0,-15.0,-27.0
26.512560844421387,,,-45.0,-13.0,1554.0,-5.0,-16.0,-29.0
26.533092498779297,,,196.0,-318.0,1724.0,-5.0,-15.0,-26.0
26.55347514152527,,,346.0,-727.0,1810.0,-6.0,-13.0,-20.0
26.569995641708374,,,402.0,-1365.0,2205.0,-2.0,-10.0,-2.0
26.590340852737427,,,262.0,-1373.0,2436.0,1.0,-10.0,6.0
26.610997200012207,,,-37.0,-1188.0,2538.0,2.0,-10.0,11.0
26.63131618499756,,,-976.0,-767.0,2265.0,-5.0,-8.0,10.0
26.651795625686646,,,-1446.0,-605.0,2151.0,-11.0,-7.0,6.0
26.67244052886963,,,-1827.0,-384.0,2191.0,-14.0,-10.0,0.0
26.69279408454895,,,-2497.0,41.0,2041.0,-11.0,-25.0,-24.0
26.71322774887085,,,-2734.0,285.0,1838.0,-10.0,-29.0,-41.0
26.73386001586914,,,-2757.0,608.0,1810.0,-13.0,-31.0,-62.0
26.75420570373535,,,-1695.0,1211.0,3366.0,-11.0,-47.0,-110.0
26.7747004032135,,,-972.0,1193.0,4237.0,-2.0,-59.0,-135.0
26.795197248458862,,,125.0,19.0,6102.0,5.0,-74.0,-193.0
26.81578230857849,,,938.0,-1070.0,7145.0,14.0,-66.0,-217.0
26.836220741271973,,,1500.0,-2085.0,8451.0,22.0,-50.0,-201.0
26.856691122055054,,,1035.0,-2717.0,10111.0,44.0,-18.0,-112.0
26.877112865447998,,,893.0,-2745.0,10450.0,58.0,-6.0,-68.0
26.897644519805908,,,930.0,-2680.0,10490.0,68.0,3.0,-29.0
26.918127059936523,,,904.0,-2159.0,9013.0,92.0,6.0,12.0
26.93869948387146,,,918.0,-1477.0,7577.0,104.0,8.0,16.0
26.959026098251343,,,1241.0,-264.0,5823.0,118.0,10.0,18.0
26.97954773902893,,,2148.0,3528.0,1805.0,118.0,6.0,46.0
27.00002121925354,,,2365.0,5136.0,-402.0,98.0,3.0,69.0
27.020540714263916,,,2166.0,5977.0,-2522.0,73.0,-2.0,82.0
27.04104208946228,,,1235.0,5501.0,-4747.0,42.0,-5.0,40.0
27.061487913131714,,,1060.0,4871.0,-4636.0,41.0,3.0,-3.0
27.082010746002197,,,1669.0,4503.0,-3029.0,62.0,17.0,-87.0
27.10245180130005,,,2273.0,4561.0,-1942.0,72.0,26.0,-107.0
27.122835159301758,,,2629.0,4506.0,-786.0,76.0,37.0,-109.0
27.14337182044983,,,2519.0,4075.0,1361.0,67.0,59.0,-72.0
27.16386580467224,,,2432.0,3963.0,2270.0,58.0,73.0,-38.0
27.18444561958313,,,2384.0,4086.0,3149.0,48.0,85.0,-5.0
27.204874753952026,,,1308.0,4849.0,4066.0,42.0,95.0,29.0
27.225324630737305,,,82.0,5180.0,3750.0,37.0,92.0,32.0
27.24597477912903,,,-1272.0,5028.0,2955.0,29.0,87.0,24.0
27.266218662261963,,,-3638.0,3561.0,747.0,12.0,78.0,11.0
27.28678560256958,,,-4414.0,2861.0,-64.0,5.0,69.0,15.0
27.307297468185425,,,-4544.0,1278.0,-1014.0,0.0,55.0,5.0
27.32784652709961,,,-4301.0,504.0,-1362.0,3.0,56.0,-8.0
27.348126649856567,,,-4291.0,20.0,-1327.0,9.0,57.0,-6.0
27.36874222755432,,,-4283.0,-220.0,-937.0,36.0,47.0,32.0
27.38915514945984,,,-4411.0,5.0,-1087.0,49.0,35.0,49.0
27.409798860549927,,,-4740.0,376.0,-1321.0,55.0,18.0,54.0
27.430103063583374,,,-5070.0,866.0,-1433.0,46.0,-20.0,28.0
27.4506413936615,,,-4781.0,1300.0,-1080.0,25.0,-19.0,-15.0
27.471110343933105,,,-4384.0,2977.0,22.0,17.0,-2.0,-77.0
27.49147629737854,,,-5846.0,6466.0,2805.0,-7.0,-34.0,-155.0
27.5120792388916,,,-5665.0,5083.0,3531.0,-50.0,-38.0,-133.0
27.532581567764282,,,-4423.0,2703.0,4587.0,-70.0,-23.0,-89.0
27.553066968917847,,,-1183.0,-945.0,7076.0,-49.0,-3.0,-17.0
27.57342505455017,,,211.0,-1732.0,7261.0,-30.0,2.0,29.0
27.593836545944214,,,2485.0,-1275.0,5661.0,1.0,14.0,84.0
27.61443567276001,,,3122.0,-648.0,4218.0,3.0,18.0,82.0
27.63483190536499,,,3458.0,-235.0,2641.0,1.0,22.0,70.0
27.651214838027954,,,3547.0,-9.0,-41.0,7.0,36.0,39.0
27.671725511550903,,,2832.0,107.0,-720.0,11.0,43.0,26.0
27.692208528518677,,,1174.0,552.0,-640.0,10.0,33.0,13.0
27.712631225585938,,,-1288.0,2052.0,-522.0,10.0,22.0,5.0
27.733162879943848,,,-2026.0,3205.0,251.0,16.0,27.0,8.0
27.753708839416504,,,-444.0,4578.0,1357.0,33.0,68.0,-9.0
27.774117469787598,,,1793.0,5972.0,1513.0,-51.0,110.0,116.0
27.79459857940674,,,794.0,5418.0,1489.0,-105.0,92.0,199.0
27.815036296844482,,,-4396.0,2942.0,4874.0,-38.0,-2.0,49.0
27.835513830184937,,,-6876.0,2243.0,3508.0,-40.0,-2.0,13.0
27.855982542037964,,,-7577.0,2228.0,2262.0,-94.0,22.0,29.0
27.876473426818848,,,-3135.0,3641.0,285.0,-110.0,55.0,16.0
27.8969509601593,,,-1293.0,3234.0,1037.0,-79.0,30.0,-50.0
27.917545318603516,,,-209.0,2381.0,1753.0,-51.0,5.0,-118.0
27.937954425811768,,,525.0,311.0,2076.0,-69.0,5.0,-112.0
27.958354711532593,,,1146.0,-1103.0,2936.0,-71.0,8.0,-67.0
27.97896146774292,,,1901.0,-2483.0,3619.0,-63.0,10.0,-13.0
27.999444007873535,,,2248.0,-2920.0,2873.0,-41.0,15.0,72.0
28.019879817962646,,,1479.0,-2074.0,2233.0,-36.0,12.0,82.0
28.040367126464844,,,-330.0,-501.0,1386.0,-30.0,3.0,52.0
28.060798168182373,,,-924.0,-119.0,1118.0,-30.0,-2.0,30.0
28.081319093704224,,,-1223.0,71.0,1036.0,-29.0,-6.0,13.0
28.101815938949585,,,-1520.0,299.0,1399.0,-27.0,-23.0,-12.0
28.122281312942505,,,-1347.0,437.0,1373.0,-26.0,-27.0,-28.0
28.146830797195435,,,-942.0,502.0,1283.0,-27.0,-26.0,-40.0
28.1673846244812,,,296.0,135.0,1540.0,-24.0,-25.0,-37.0
28.187912702560425,,,864.0,-160.0,1707.0,-22.0,-26.0,-25.0
28.208280086517334,,,1219.0,-430.0,1673.0,-23.0,-26.0,7.0
28.273971557617188,,,1146.0,-239.0,1155.0,-26.0,-10.0,21.0
28.29445767402649,,,1168.0,-212.0,1039.0,-23.0,-2.0,21.0
28.31496238708496,,,1166.0,-522.0,1364.0,-12.0,-5.0,11.0
28.335307598114014,,,1121.0,-762.0,1599.0,-7.0,-10.0,4.0
28.355748891830444,,,1005.0,-828.0,1676.0,-5.0,-11.0,-3.0
28.376338481903076,,,678.0,-590.0,1891.0,-4.0,-8.0,-12.0
28.392648458480835,,,595.0,-560.0,2222.0,-3.0,-9.0,-12.0
28.413214683532715,,,689.0,-742.0,2467.0,-1.0,-5.0,-10.0
28.43359684944153,,,1084.0,-1101.0,2554.0,-14.0,14.0,25.0
28.45404028892517,,,1110.0,-918.0,2181.0,-22.0,8.0,53.0
28.47443151473999,,,912.0,-1061.0,2117.0,-14.0,2.0,45.0
28.494948863983154,,,951.0,-1133.0,2178.0,-3.0,-1.0,34.0
28.51555347442627,,,852.0,-896.0,1977.0,7.0,0.0,37.0
28.535975456237793,,,-368.0,-53.0,1748.0,4.0,0.0,14.0
28.556302785873413,,,-850.0,-57.0,1661.0,-3.0,-1.0,-1.0
28.576908111572266,,,-924.0,-377.0,1660.0,-5.0,-3.0,-10.0
28.5974280834198,,,72.0,-1133.0,1690.0,0.0,-2.0,-8.0
28.61779022216797,,,634.0,-1291.0,1679.0,3.0,0.0,2.0
28.638351917266846,,,963.0,-1261.0,1720.0,6.0,2.0,11.0
28.65875005722046,,,731.0,-880.0,1851.0,5.0,1.0,17.0
28.679400205612183,,,389.0,-824.0,1878.0,2.0,1.0,13.0
28.699815273284912,,,175.0,-828.0,1897.0,1.0,2.0,10.0
28.720303297042847,,,139.0,-730.0,1865.0,0.0,3.0,12.0
28.74072790145874,,,17.0,-538.0,1778.0,-1.0,4.0,15.0
28.761300563812256,,,-147.0,-391.0,2064.0,0.0,0.0,-7.0
28.781707525253296,,,208.0,-716.0,2096.0,2.0,0.0,-15.0
28.802178859710693,,,751.0,-1138.0,2025.0,6.0,3.0,-12.0
28.82283115386963,,,882.0,-1030.0,2376.0,13.0,2.0,2.0
28.843258380889893,,,257.0,-640.0,2529.0,14.0,-2.0,-6.0
28.863626956939697,,,-426.0,-517.0,2628.0,11.0,-8.0,-21.0
28.88418412208557,,,195.0,-1066.0,2429.0,15.0,-3.0,-36.0
28.904661655426025,,,886.0,-1259.0,2381.0,18.0,1.0,-19.0
28.925171375274658,,,1226.0,-1293.0,2330.0,19.0,1.0,-3.0
28.945690631866455,,,971.0,-1056.0,1832.0,18.0,0.0,3.0
28.966037273406982,,,851.0,-874.0,1606.0,16.0,3.0,2.0
28.986515760421753,,,791.0,-649.0,1136.0,12.0,9.0,10.0
29.007124423980713,,,736.0,-596.0,1284.0,14.0,9.0,4.0
29.027461051940918,,,661.0,-563.0,1528.0,18.0,10.0,-4.0
29.047925233840942,,,558.0,-634.0,1862.0,19.0,13.0,-8.0
29.06848645210266,,,490.0,-721.0,2122.0,17.0,12.0,-6.0
29.08893084526062,,,376.0,-748.0,2350.0,14.0,8.0,-4.0
29.10943293571472,,,127.0,-901.0,2235.0,6.0,5.0,2.0
29.129934072494507,,,56.0,-921.0,2009.0,2.0,6.0,9.0
29.150461196899414,,,-174.0,-708.0,1812.0,-1.0,5.0,15.0
29.170961141586304,,,-788.0,-254.0,1839.0,-2.0,0.0,-3.0
29.191383838653564,,,-909.0,-344.0,1961.0,-4.0,-3.0,-14.0
29.211899280548096,,,-716.0,-615.0,2080.0,-5.0,-5.0,-18.0
29.23236870765686,,,-38.0,-998.0,2289.0,-5.0,-6.0,-9.0
29.252798318862915,,,301.0,-985.0,2328.0,-3.0,-6.0,-5.0
29.27328634262085,,,502.0,-635.0,2092.0,-2.0,-4.0,6.0
29.29376459121704,,,361.0,-421.0,1933.0,-4.0,-4.0,7.0
29.31416606903076,,,204.0,-278.0,1842.0,-6.0,-3.0,6.0
29.334678649902344,,,-4.0,-301.0,1737.0,-8.0,-3.0,-2.0
29.35532522201538,,,61.0,-445.0,1716.0,-7.0,-2.0,-6.0
29.37557077407837,,,239.0,-578.0,1778.0,-5.0,0.0,-7.0
29.39608883857727,,,463.0,-581.0,1976.0,-3.0,0.0,-2.0
29.416529655456543,,,422.0,-529.0,1984.0,-4.0,0.0,0.0
29.437055587768555,,,381.0,-578.0,1944.0,-5.0,-1.0,0.0
29.453365802764893,,,482.0,-810.0,1942.0,-3.0,-1.0,-1.0
29.474013566970825,,,536.0,-792.0,1978.0,-1.0,-1.0,2.0
29.494338989257812,,,439.0,-508.0,1879.0,0.0,1.0,3.0
29.514881372451782,,,389.0,-382.0,1776.0,1.0,2.0,1.0
29.535507202148438,,,362.0,-311.0,1709.0,1.0,3.0,0.0
29.555808544158936,,,226.0,-259.0,1742.0,1.0,2.0,0.0
29.576262950897217,,,153.0,-236.0,1710.0,0.0,3.0,0.0
29.59688377380371,,,75.0,-222.0,1651.0,-1.0,4.0,1.0
29.617282152175903,,,-51.0,-164.0,1613.0,-2.0,6.0,-3.0
29.637913703918457,,,-111.0,-152.0,1672.0,-2.0,7.0,-5.0
29.658282995224,,,-132.0,-151.0,1735.0,-3.0,7.0,-7.0
29.678868532180786,,,-69.0,-264.0,1919.0,-4.0,6.0,-7.0
29.699211835861206,,,21.0,-368.0,2006.0,-3.0,5.0,-6.0
29.719707489013672,,,137.0,-491.0,2077.0,-3.0,5.0,-5.0
29.740275859832764,,,205.0,-558.0,2164.0,-2.0,5.0,-3.0
29.760778188705444,,,221.0,-557.0,2256.0,-2.0,4.0,-1.0
29.781185626983643,,,162.0,-521.0,2183.0,-1.0,3.0,3.0
29.80167531967163,,,71.0,-489.0,2064.0,-1.0,2.0,1.0
29.822125673294067,,,-7.0,-474.0,2003.0,0.0,1.0,-3.0
29.842734336853027,,,134.0,-508.0,2071.0,3.0,1.0,-6.0
29.86301302909851,,,246.0,-513.0,2113.0,4.0,1.0,-3.0
29.88351082801819,,,289.0,-468.0,2098.0,4.0,0.0,1.0
29.903926610946655,,,100.0,-285.0,1912.0,2.0,1.0,4.0
29.924516201019287,,,-34.0,-198.0,1847.0,0.0,1.0,4.0
29.94490146636963,,,-129.0,-180.0,1826.0,0.0,1.0,2.0
29.96557378768921,,,-164.0,-195.0,1790.0,0.0,0.0,0.0
29.985899448394775,,,-190.0,-127.0,1785.0,0.0,0.0,-2.0
30.006514072418213,,,-175.0,-122.0,1744.0,-2.0,0.0,-4.0
30.026824712753296,,,-57.0,-206.0,1765.0,-2.0,0.0,-5.0
30.047285079956055,,,89.0,-303.0,1789.0,-1.0,0.0,-3.0
30.06778120994568,,,231.0,-323.0,1793.0,0.0,1.0,1.0
30.088346242904663,,,203.0,-266.0,1803.0,0.0,1.0,1.0
30.109002113342285,,,164.0,-216.0,1792.0,-1.0,1.0,-1.0
30.129308700561523,,,142.0,-185.0,1789.0,-1.0,1.0,-2.0
30.149718523025513,,,125.0,-188.0,1839.0,-1.0,0.0,-3.0
30.170273303985596,,,101.0,-189.0,1889.0,0.0,1.0,-3.0
30.19063425064087,,,22.0,-206.0,1948.0,-1.0,1.0,-2.0
30.211222171783447,,,-5.0,-263.0,1956.0,-1.0,1.0,-2.0
30.231714248657227,,,-6.0,-336.0,1956.0,-1.0,0.0,-1.0
30.252251386642456,,,-22.0,-369.0,1962.0,0.0,-1.0,0.0
30.272674798965454,,,-30.0,-354.0,1982.0,0.0,-2.0,0.0
30.293089151382446,,,-21.0,-334.0,1988.0,1.0,-2.0,0.0
30.313514471054077,,,-1.0,-311.0,1965.0,1.0,-3.0,0.0
30.33404779434204,,,23.0,-265.0,1904.0,1.0,-2.0,1.0
30.354538202285767,,,33.0,-153.0,1788.0,0.0,-1.0,-1.0
30.375059366226196,,,68.0,-132.0,1741.0,0.0,-1.0,-1.0
30.395549058914185,,,128.0,-153.0,1715.0,0.0,-1.0,-1.0
30.416037559509277,,,124.0,-171.0,1725.0,1.0,0.0,-1.0
30.43634533882141,,,108.0,-190.0,1736.0,0.0,1.0,-1.0
30.456971406936646,,,118.0,-226.0,1757.0,-1.0,1.0,0.0
30.477336168289185,,,99.0,-233.0,1763.0,0.0,1.0,1.0
30.497892141342163,,,62.0,-211.0,1768.0,1.0,1.0,0.0
30.518445014953613,,,-10.0,-222.0,1822.0,0.0,0.0,-2.0
30.534699201583862,,,-14.0,-260.0,1843.0,0.0,0.0,-2.0
30.55520462989807,,,-4.0,-268.0,1859.0,0.0,0.0,0.0
30.57564878463745,,,-44.0,-185.0,1820.0,-1.0,0.0,1.0
30.59618330001831,,,-72.0,-145.0,1787.0,-1.0,0.0,-1.0
30.616623401641846,,,-58.0,-158.0,1764.0,-1.0,0.0,-3.0
30.637166023254395,,,72.0,-217.0,1802.0,0.0,0.0,-2.0
30.66173005104065,,,92.0,-195.0,1793.0,0.0,1.0,-1.0
30.6822726726532,,,84.0,-143.0,1748.0,-1.0,1.0,1.0
30.702732801437378,,,18.0,-134.0,1743.0,-2.0,1.0,0.0
30.723246812820435,,,-36.0,-144.0,1755.0,-2.0,1.0,-2.0
30.743688344955444,,,11.0,-199.0,1797.0,-1.0,1.0,-3.0
30.764163970947266,,,35.0,-203.0,1815.0,-1.0,1.0,-2.0
30.784704446792603,,,42.0,-180.0,1856.0,-2.0,1.0,-2.0
30.805233478546143,,,53.0,-266.0,1875.0,-1.0,0.0,-3.0
30.82574701309204,,,111.0,-327.0,1876.0,0.0,1.0,-3.0
30.846091985702515,,,145.0,-340.0,1901.0,1.0,1.0,-2.0
30.86665105819702,,,79.0,-206.0,1916.0,0.0,-1.0,1.0
30.886887550354004,,,31.0,-156.0,1877.0,0.0,-1.0,0.0
30.9076087474823,,,-9.0,-163.0,1844.0,0.0,-1.0,-1.0
30.92815375328064,,,-28.0,-161.0,1831.0,0.0,0.0,-1.0
30.948387145996094,,,-16.0,-150.0,1833.0,0.0,0.0,-2.0
30.96886658668518,,,41.0,-108.0,1904.0,0.0,0.0,0.0
30.98941946029663,,,21.0,-75.0,1906.0,0.0,-1.0,2.0
31.00991463661194,,,-24.0,-85.0,1868.0,-1.0,-1.0,1.0
31.030401945114136,,,-66.0,-156.0,1779.0,-1.0,-1.0,0.0
31.05078387260437,,,-62.0,-149.0,1739.0,-1.0,-1.0,-1.0
31.071292638778687,,,-45.0,-120.0,1717.0,0.0,-1.0,-2.0
31.09179663658142,,,29.0,-86.0,1797.0,-1.0,-1.0,-1.0
31.112242460250854,,,66.0,-99.0,1815.0,-1.0,0.0,1.0
31.132701873779297,,,16.0,-83.0,1743.0,0.0,0.0,1.0
31.153309106826782,,,-27.0,-52.0,1702.0,-1.0,0.0,-1.0
31.17377805709839,,,-39.0,-51.0,1723.0,-1.0,0.0,-2.0
31.194177389144897,,,5.0,-75.0,1802.0,-1.0,0.0,0.0
31.21456742286682,,,3.0,-95.0,1816.0,-1.0,0.0,0.0
31.235154151916504,,,-3.0,-124.0,1807.0,-1.0,0.0,-1.0
31.25154995918274,,,19.0,-170.0,1821.0,0.0,0.0,0.0
31.272040128707886,,,31.0,-151.0,1839.0,0.0,0.0,0.0
31.292508125305176,,,36.0,-115.0,1840.0,0.0,0.0,0.0
31.31300950050354,,,5.0,-89.0,1791.0,0.0,0.0,-1.0
31.333433866500854,,,7.0,-112.0,1794.0,0.0,0.0,-1.0
31.353896379470825,,,8.0,-96.0,1817.0,0.0,0.0,-1.0
31.374412298202515,,,28.0,-43.0,1836.0,-1.0,0.0,0.0
31.394858598709106,,,45.0,-68.0,1811.0,-1.0,-1.0,1.0
31.415460109710693,,,31.0,-130.0,1759.0,0.0,0.0,0.0
31.43591046333313,,,0.0,-128.0,1788.0,0.0,0.0,0.0
31.456387758255005,,,-2.0,-107.0,1807.0,0.0,0.0,-1.0
31.476754903793335,,,0.0,-86.0,1833.0,0.0,0.0,0.0
31.497301816940308,,,-9.0,-68.0,1806.0,0.0,0.0,1.0
31.51777720451355,,,-13.0,-62.0,1772.0,0.0,0.0,0.0
31.538225173950195,,,-30.0,-76.0,1745.0,0.0,0.0,-1.0
31.5586941242218,,,-31.0,-88.0,1745.0,0.0,0.0,-2.0
31.579191207885742,,,-4.0,-89.0,1760.0,0.0,0.0,-2.0
31.599682807922363,,,60.0,-77.0,1783.0,1.0,0.0,-1.0
31.620192050933838,,,41.0,-81.0,1760.0,1.0,1.0,-1.0
31.640687704086304,,,-12.0,-113.0,1730.0,1.0,1.0,-3.0
31.661224842071533,,,-16.0,-128.0,1773.0,1.0,1.0,-3.0
31.681691646575928,,,1.0,-150.0,1806.0,1.0,1.0,-2.0
31.702043533325195,,,-15.0,-109.0,1775.0,1.0,1.0,0.0
31.722708463668823,,,-59.0,-69.0,1766.0,0.0,1.0,-1.0
31.743123054504395,,,-81.0,-52.0,1775.0,0.0,1.0,-2.0
31.7636399269104,,,-48.0,-48.0,1794.0,0.0,1.0,-2.0
31.783998727798462,,,-47.0,-50.0,1779.0,0.0,1.0,-1.0
31.804538011550903,,,-53.0,-64.0,1785.0,0.0,1.0,-2.0
31.82504677772522,,,-36.0,-67.0,1858.0,0.0,1.0,-2.0
31.845518112182617,,,-43.0,-78.0,1868.0,0.0,1.0,-1.0
31.865946769714355,,,-34.0,-124.0,1812.0,-1.0,1.0,-1.0
31.886476516723633,,,26.0,-185.0,1705.0,1.0,2.0,0.0
31.90692949295044,,,13.0,-156.0,1672.0,1.0,1.0,-1.0
31.92732858657837,,,-15.0,-114.0,1661.0,1.0,1.0,-3.0
31.9478816986084,,,70.0,-110.0,1756.0,-1.0,0.0,-2.0
31.968377113342285,,,131.0,-118.0,1764.0,-1.0,1.0,0.0
31.988935470581055,,,132.0,-101.0,1784.0,-1.0,0.0,2.0
32.00926089286804,,,132.0,-73.0,1840.0,0.0,0.0,2.0
32.029773235321045,,,116.0,-29.0,1892.0,0.0,-1.0,2.0
32.0502815246582,,,62.0,-4.0,1807.0,-2.0,-2.0,3.0
32.07078790664673,,,63.0,-39.0,1739.0,-1.0,-2.0,2.0
32.09126567840576,,,63.0,-47.0,1700.0,0.0,-2.0,1.0
32.111684799194336,,,45.0,6.0,1726.0,1.0,-3.0,-1.0
32.132219314575195,,,60.0,26.0,1761.0,1.0,-2.0,-1.0
32.15257167816162,,,115.0,66.0,1799.0,1.0,-3.0,3.0
32.17315316200256,,,112.0,81.0,1807.0,0.0,-3.0,4.0
32.19367957115173,,,71.0,91.0,1782.0,-1.0,-3.0,4.0
32.21422863006592,,,47.0,-29.0,1831.0,0.0,-3.0,2.0
32.23454928398132,,,91.0,-79.0,1865.0,2.0,-2.0,2.0
32.254926919937134,,,97.0,-47.0,1869.0,3.0,-2.0,3.0
32.275532722473145,,,8.0,110.0,1920.0,3.0,-4.0,2.0
32.29610538482666,,,-56.0,78.0,1931.0,3.0,-5.0,-1.0
32.31640386581421,,,-14.0,-16.0,1950.0,4.0,-4.0,-3.0
32.33285164833069,,,112.0,-42.0,2040.0,6.0,-3.0,2.0
32.35329985618591,,,65.0,15.0,2029.0,5.0,-4.0,4.0
32.373817443847656,,,-33.0,104.0,1923.0,3.0,-4.0,4.0
32.39428973197937,,,-235.0,215.0,1770.0,1.0,-3.0,-1.0
32.41481590270996,,,-262.0,182.0,1749.0,2.0,-3.0,-4.0
32.43524980545044,,,-86.0,-51.0,1725.0,3.0,-3.0,-5.0
32.45580792427063,,,-3.0,-182.0,1690.0,2.0,-2.0,-4.0
32.4761598110199,,,33.0,-254.0,1632.0,2.0,0.0,-2.0
32.496747732162476,,,12.0,-134.0,1633.0,2.0,2.0,0.0
32.51725935935974,,,-15.0,-63.0,1677.0,1.0,0.0,-1.0
32.53774952888489,,,-31.0,-57.0,1719.0,1.0,-1.0,-2.0
32.55823874473572,,,-3.0,-103.0,1724.0,1.0,-1.0,-2.0
32.578571796417236,,,19.0,-148.0,1724.0,2.0,0.0,-3.0
32.599204301834106,,,-94.0,2.0,1781.0,2.0,3.0,-3.0
32.61963629722595,,,-164.0,151.0,1894.0,-1.0,1.0,-4.0
32.64008164405823,,,-150.0,114.0,1883.0,-2.0,0.0,-3.0
32.66064476966858,,,-77.0,-9.0,1876.0,-1.0,-1.0,-4.0
32.68100547790527,,,-12.0,-4.0,1919.0,-1.0,-1.0,-3.0
32.70156121253967,,,24.0,39.0,1935.0,-1.0,-1.0,-1.0
32.722127199172974,,,12.0,142.0,1913.0,-2.0,-1.0,0.0
32.74265909194946,,,-11.0,170.0,1892.0,-1.0,-1.0,0.0
32.76298522949219,,,-40.0,165.0,1875.0,-1.0,-2.0,-1.0
32.78343343734741,,,12.0,49.0,1807.0,0.0,-1.0,-3.0
32.80374717712402,,,42.0,0.0,1803.0,1.0,-1.0,-3.0
32.82429599761963,,,39.0,-29.0,1810.0,2.0,0.0,-3.0
32.84482169151306,,,1.0,-28.0,1780.0,3.0,0.0,-3.0
32.8652777671814,,,-49.0,-14.0,1767.0,3.0,0.0,-3.0
32.88606095314026,,,-104.0,0.0,1776.0,3.0,-1.0,-2.0
32.90634536743164,,,-27.0,40.0,1839.0,2.0,-2.0,-2.0
32.92679214477539,,,85.0,46.0,1930.0,2.0,-2.0,-1.0
32.947283029556274,,,134.0,42.0,2056.0,3.0,-3.0,6.0
32.96778988838196,,,76.0,56.0,1973.0,3.0,-3.0,6.0
32.9881808757782,,,43.0,67.0,1852.0,3.0,-2.0,4.0
33.008631229400635,,,88.0,74.0,1793.0,5.0,-1.0,1.0
33.02907729148865,,,66.0,108.0,1843.0,6.0,-1.0,-1.0
33.04963564872742,,,16.0,175.0,1868.0,6.0,-1.0,-3.0
33.07007646560669,,,-56.0,53.0,1701.0,2.0,0.0,-3.0
33.0906867980957,,,-17.0,-77.0,1645.0,1.0,0.0,-3.0
33.11107516288757,,,71.0,-141.0,1643.0,1.0,0.0,-3.0
33.131616830825806,,,139.0,-144.0,1582.0,1.0,1.0,0.0
33.15200853347778,,,117.0,-162.0,1589.0,1.0,1.0,1.0
33.17242908477783,,,83.0,-152.0,1636.0,2.0,1.0,1.0
33.19288492202759,,,42.0,-26.0,1790.0,2.0,0.0,1.0
33.213462829589844,,,6.0,23.0,1848.0,1.0,-1.0,2.0
33.234060764312744,,,22.0,-54.0,1818.0,-1.0,-2.0,3.0
33.2543728351593,,,77.0,-156.0,1787.0,0.0,-2.0,3.0
33.274972438812256,,,138.0,-256.0,1785.0,1.0,-4.0,3.0
33.29555082321167,,,126.0,-187.0,1896.0,4.0,-5.0,4.0
33.315847873687744,,,-20.0,-14.0,1942.0,3.0,-5.0,5.0
33.33634328842163,,,-277.0,98.0,1801.0,-3.0,-5.0,5.0
33.35685682296753,,,-228.0,3.0,1717.0,-4.0,-5.0,4.0
33.377278089523315,,,-91.0,-73.0,1751.0,-4.0,-7.0,2.0
33.397799491882324,,,124.0,-40.0,1770.0,0.0,-11.0,5.0
33.41820192337036,,,142.0,110.0,1654.0,1.0,-11.0,5.0
33.43868041038513,,,71.0,354.0,1597.0,1.0,-11.0,4.0
33.45926260948181,,,-11.0,887.0,1733.0,2.0,-13.0,-2.0
33.4797797203064,,,22.0,1054.0,1854.0,2.0,-15.0,-2.0
33.50008845329285,,,59.0,1073.0,1885.0,1.0,-19.0,1.0
33.52070093154907,,,117.0,928.0,1551.0,1.0,-25.0,6.0
33.54111933708191,,,87.0,900.0,1222.0,3.0,-27.0,6.0
33.56167769432068,,,-176.0,1087.0,738.0,13.0,-28.0,-2.0
33.58203148841858,,,-193.0,1311.0,619.0,20.0,-28.0,-9.0
33.60261845588684,,,-191.0,1424.0,371.0,25.0,-27.0,-11.0
33.62302255630493,,,-567.0,949.0,510.0,33.0,-38.0,-8.0
33.64352989196777,,,-566.0,701.0,78.0,34.0,-39.0,-23.0
33.664007902145386,,,-188.0,989.0,-478.0,36.0,-32.0,-31.0
33.684531450271606,,,662.0,3060.0,168.0,58.0,-22.0,-30.0
33.70502066612244,,,472.0,3753.0,469.0,60.0,-23.0,-34.0
33.72566866874695,,,155.0,3653.0,550.0,58.0,-26.0,-46.0
33.74590516090393,,,305.0,3023.0,532.0,62.0,-26.0,-67.0
33.76642870903015,,,734.0,3752.0,966.0,66.0,-20.0,-61.0
33.7868173122406,,,1182.0,5255.0,1788.0,72.0,-13.0,-47.0
33.807419776916504,,,1360.0,6905.0,1900.0,49.0,5.0,-8.0
33.82777976989746,,,1133.0,7210.0,1836.0,39.0,19.0,3.0
33.848342180252075,,,-974.0,9256.0,3386.0,22.0,18.0,6.0
33.86880421638489,,,-1917.0,9693.0,4417.0,2.0,10.0,12.0
33.88932538032532,,,-2291.0,8980.0,4635.0,-9.0,12.0,25.0
33.90981364250183,,,-2561.0,7014.0,2744.0,-18.0,41.0,41.0
33.930317878723145,,,-2283.0,6041.0,1592.0,-27.0,58.0,43.0
33.95076012611389,,,-1691.0,4799.0,709.0,-34.0,72.0,45.0
33.971227407455444,,,198.0,1593.0,336.0,-41.0,84.0,53.0
33.99174189567566,,,1382.0,-11.0,263.0,-35.0,69.0,51.0
34.01213502883911,,,2301.0,-1345.0,384.0,-28.0,60.0,49.0
34.032593965530396,,,2700.0,-2197.0,1534.0,-19.0,53.0,45.0
34.0531804561615,,,2240.0,-3284.0,7433.0,1.0,30.0,38.0
34.073638677597046,,,2007.0,-5291.0,10688.0,32.0,18.0,47.0
34.09417533874512,,,2153.0,-6337.0,10525.0,60.0,3.0,59.0
34.11461687088013,,,2033.0,-6107.0,9914.0,88.0,-15.0,71.0
34.13098359107971,,,-4.0,-4168.0,6867.0,93.0,-24.0,78.0
34.15149235725403,,,-1623.0,-3251.0,5044.0,71.0,-25.0,83.0
34.1719024181366,,,-2969.0,-2297.0,3683.0,45.0,-26.0,80.0
34.192450284957886,,,-4119.0,-1054.0,1773.0,2.0,-33.0,23.0
34.21279263496399,,,-3954.0,-669.0,1049.0,-14.0,-36.0,-11.0
34.23327851295471,,,-3441.0,-117.0,330.0,-23.0,-39.0,-35.0
34.253748178482056,,,-1852.0,1102.0,-1582.0,-35.0,-41.0,-47.0
34.2742383480072,,,-794.0,1577.0,-2855.0,-44.0,-32.0,-35.0
34.29490113258362,,,389.0,1681.0,-4355.0,-54.0,-17.0,-15.0
34.31523585319519,,,2832.0,687.0,-7978.0,-66.0,25.0,21.0
34.33581757545471,,,3990.0,176.0,-9639.0,-62.0,51.0,39.0
34.3562216758728,,,5486.0,322.0,-11734.0,-33.0,105.0,75.0
34.376819133758545,,,5554.0,1115.0,-12256.0,-24.0,129.0,85.0
34.3971951007843,,,5174.0,2146.0,-12213.0,-20.0,153.0,98.0
34.417600870132446,,,4012.0,3805.0,-8557.0,-10.0,176.0,115.0
34.43803262710571,,,3849.0,4214.0,-2403.0,26.0,157.0,118.0
34.45872926712036,,,3504.0,3732.0,3301.0,98.0,113.0,101.0
34.479111433029175,,,-216.0,943.0,7866.0,23.0,164.0,33.0
34.49951958656311,,,906.0,-1110.0,9175.0,28.0,211.0,66.0
34.52014636993408,,,2265.0,-2935.0,10534.0,50.0,227.0,135.0
34.540579080581665,,,2993.0,-3808.0,11373.0,96.0,186.0,213.0
34.5610237121582,,,1135.0,-3129.0,10279.0,95.0,180.0,211.0
34.58146023750305,,,-3241.0,-3806.0,7790.0,30.0,156.0,141.0
34.602044343948364,,,-3420.0,-5209.0,6077.0,11.0,119.0,100.0
34.62242102622986,,,-1753.0,-5690.0,3297.0,14.0,98.0,62.0
34.642972469329834,,,-52.0,-5655.0,907.0,46.0,125.0,88.0
34.6633985042572,,,-1964.0,-7798.0,1985.0,3.0,110.0,112.0
34.68386793136597,,,-3146.0,-11239.0,2146.0,-37.0,81.0,115.0
34.70441007614136,,,-275.0,-15802.0,1620.0,-31.0,24.0,-32.0
34.724836349487305,,,684.0,-15938.0,1904.0,-46.0,-16.0,-95.0
34.745402574539185,,,1826.0,-13969.0,2094.0,-54.0,-54.0,-131.0
34.76582193374634,,,2977.0,-9806.0,3423.0,-71.0,-93.0,-130.0
34.78631615638733,,,2895.0,-7194.0,5346.0,-67.0,-88.0,-135.0
34.806801080703735,,,3295.0,-4896.0,7304.0,-58.0,-92.0,-128.0
34.8272008895874,,,4165.0,-2152.0,8457.0,-54.0,-107.0,-122.0
34.847771883010864,,,4531.0,-1233.0,7705.0,-45.0,-113.0,-133.0
34.868184328079224,,,4999.0,724.0,5414.0,-35.0,-102.0,-114.0
34.88871622085571,,,5512.0,1462.0,4405.0,-27.0,-87.0,-90.0
34.90937113761902,,,5986.0,1892.0,3626.0,-16.0,-70.0,-67.0
34.929659366607666,,,5225.0,1226.0,2408.0,5.0,-53.0,-43.0
34.950172424316406,,,4265.0,542.0,2012.0,10.0,-51.0,-50.0
34.97058725357056,,,3320.0,18.0,1650.0,15.0,-49.0,-66.0
34.991090059280396,,,2550.0,-468.0,999.0,19.0,-43.0,-100.0
35.011576652526855,,,2774.0,-563.0,684.0,21.0,-37.0,-103.0
35.03204369544983,,,3178.0,-597.0,381.0,23.0,-29.0,-97.0
35.05252814292908,,,4044.0,-739.0,-37.0,30.0,-13.0,-57.0
35.073004722595215,,,4280.0,-781.0,-277.0,32.0,-3.0,-31.0
35.093525886535645,,,4103.0,-548.0,-641.0,39.0,18.0,10.0
35.11401629447937,,,3670.0,-419.0,-354.0,44.0,25.0,25.0
35.13451528549194,,,2949.0,-297.0,276.0,53.0,24.0,32.0
35.15489602088928,,,391.0,-1181.0,1645.0,47.0,-14.0,33.0
35.175437211990356,,,-172.0,-1810.0,1571.0,27.0,-23.0,32.0
35.195868253707886,,,-308.0,-2290.0,1097.0,11.0,-20.0,34.0
35.212220907211304,,,-257.0,-2330.0,-102.0,-12.0,-1.0,34.0
35.232709884643555,,,-87.0,-2012.0,-125.0,-10.0,4.0,24.0
35.25318908691406,,,52.0,-1586.0,296.0,-1.0,0.0,11.0
35.27359700202942,,,269.0,-872.0,1594.0,9.0,-19.0,-12.0
35.29423403739929,,,476.0,-595.0,1805.0,3.0,-24.0,-9.0
35.314656019210815,,,536.0,-431.0,1315.0,-9.0,-18.0,5.0
35.33512496948242,,,229.0,-592.0,629.0,-29.0,-6.0,11.0
35.355653047561646,,,403.0,-460.0,1017.0,-20.0,-5.0,-3.0
35.376152992248535,,,923.0,-110.0,1915.0,2.0,-8.0,-17.0
35.39655303955078,,,1060.0,-146.0,2026.0,0.0,-7.0,-15.0
35.4170618057251,,,1226.0,-151.0,1956.0,-6.0,-5.0,-11.0
35.437501668930054,,,1486.0,141.0,2062.0,-12.0,-1.0,9.0
35.45800042152405,,,1343.0,280.0,2153.0,-11.0,-2.0,18.0
35.478452920913696,,,1100.0,288.0,2018.0,-11.0,-3.0,23.0
35.498984575271606,,,841.0,150.0,1722.0,-12.0,-1.0,19.0
35.51938438415527,,,828.0,211.0,1675.0,-10.0,0.0,14.0
35.54001021385193,,,828.0,296.0,1696.0,-8.0,1.0,8.0
35.560444593429565,,,934.0,529.0,1927.0,-5.0,8.0,7.0
35.58088135719299,,,942.0,534.0,2222.0,-6.0,6.0,14.0
35.601343870162964,,,1072.0,442.0,2389.0,-3.0,-1.0,20.0
35.62195038795471,,,1005.0,415.0,2177.0,-1.0,1.0,22.0
35.64234209060669,,,772.0,387.0,1976.0,-4.0,4.0,26.0
35.66285061836243,,,425.0,442.0,1889.0,-10.0,4.0,25.0
35.687408685684204,,,455.0,439.0,1848.0,-11.0,2.0,26.0
35.70781898498535,,,497.0,350.0,1593.0,-5.0,1.0,23.0
35.72839593887329,,,386.0,333.0,1438.0,-3.0,2.0,18.0
35.74884915351868,,,227.0,318.0,1320.0,-4.0,2.0,12.0
35.76928400993347,,,273.0,386.0,1430.0,-5.0,0.0,5.0
35.78981351852417,,,485.0,470.0,1556.0,-5.0,1.0,7.0
35.81033134460449,,,634.0,516.0,1598.0,-3.0,2.0,12.0
35.83079218864441,,,467.0,482.0,1601.0,-1.0,3.0,15.0
35.851144552230835,,,333.0,430.0,1631.0,-2.0,3.0,11.0
35.871758460998535,,,282.0,396.0,1684.0,-2.0,3.0,6.0
35.89207696914673,,,312.0,323.0,1724.0,-3.0,4.0,2.0
35.91263222694397,,,332.0,262.0,1698.0,-3.0,3.0,0.0
35.92896389961243,,,358.0,229.0,1677.0,-3.0,3.0,-2.0
35.94952201843262,,,364.0,247.0,1776.0,-5.0,1.0,-5.0
35.96995735168457,,,387.0,295.0,1864.0,-5.0,1.0,-5.0
35.99044680595398,,,392.0,395.0,2022.0,-6.0,1.0,-1.0
36.01099967956543,,,382.0,407.0,2012.0,-7.0,2.0,1.0
36.0314404964447,,,343.0,398.0,1938.0,-7.0,3.0,1.0
36.051819801330566,,,275.0,323.0,1797.0,-7.0,4.0,-2.0
36.07240343093872,,,263.0,265.0,1766.0,-6.0,4.0,-5.0
36.09278345108032,,,271.0,181.0,1774.0,-5.0,3.0,-8.0
36.11333656311035,,,452.0,124.0,1871.0,-4.0,2.0,-9.0
36.133824586868286,,,527.0,142.0,1936.0,-4.0,2.0,-7.0
36.154287815093994,,,547.0,180.0,1970.0,-4.0,2.0,-5.0
36.174726486206055,,,573.0,200.0,1962.0,-5.0,2.0,0.0
36.19531202316284,,,595.0,188.0,1898.0,-5.0,2.0,1.0
36.21564865112305,,,596.0,144.0,1810.0,-4.0,2.0,0.0
36.23625922203064,,,568.0,112.0,1830.0,-3.0,1.0,0.0
36.25659966468811,,,531.0,94.0,1867.0,-2.0,0.0,-2.0
36.27711582183838,,,421.0,79.0,1864.0,-1.0,-1.0,-4.0
36.297653675079346,,,368.0,100.0,1850.0,-1.0,-1.0,-3.0
36.318100452423096,,,302.0,121.0,1827.0,-2.0,-1.0,-3.0
36.33868336677551,,,246.0,105.0,1792.0,-3.0,-1.0,-4.0
36.35914421081543,,,284.0,92.0,1773.0,-4.0,-1.0,-4.0
36.379637241363525,,,309.0,106.0,1765.0,-3.0,0.0,-4.0
36.40009927749634,,,252.0,135.0,1794.0,-4.0,0.0,-3.0
36.420634031295776,,,238.0,126.0,1789.0,-5.0,1.0,-3.0
36.44110035896301,,,247.0,107.0,1748.0,-6.0,1.0,-4.0
36.46151161193848,,,350.0,69.0,1762.0,-6.0,1.0,-4.0
36.48193407058716,,,400.0,71.0,1784.0,-5.0,2.0,-4.0
36.50251007080078,,,467.0,113.0,1804.0,-5.0,3.0,-2.0
36.522860288619995,,,449.0,105.0,1824.0,-5.0,3.0,-1.0
36.54350829124451,,,412.0,89.0,1828.0,-5.0,3.0,-1.0
36.56387686729431,,,437.0,29.0,1766.0,-5.0,3.0,-2.0
36.5843665599823,,,464.0,11.0,1725.0,-5.0,4.0,-2.0
36.604751110076904,,,488.0,1.0,1697.0,-5.0,5.0,-1.0
36.62542748451233,,,427.0,-13.0,1633.0,-5.0,6.0,0.0
36.6458523273468,,,367.0,-29.0,1594.0,-6.0,7.0,-1.0
36.666231870651245,,,326.0,-57.0,1558.0,-7.0,7.0,-1.0
36.686689138412476,,,356.0,-94.0,1610.0,-7.0,8.0,-2.0
36.707261085510254,,,387.0,-103.0,1691.0,-7.0,7.0,-1.0
36.727845191955566,,,420.0,-147.0,1787.0,-8.0,8.0,0.0
36.74831700325012,,,473.0,-176.0,1767.0,-8.0,8.0,1.0
36.76867699623108,,,543.0,-195.0,1736.0,-7.0,8.0,1.0
36.78917050361633,,,602.0,-220.0,1692.0,-6.0,8.0,1.0
36.809579610824585,,,600.0,-226.0,1691.0,-5.0,8.0,1.0
36.83026099205017,,,588.0,-231.0,1687.0,-6.0,8.0,1.0
36.85065531730652,,,619.0,-266.0,1672.0,-6.0,9.0,3.0
36.87117624282837,,,624.0,-276.0,1642.0,-6.0,9.0,3.0
36.89165806770325,,,598.0,-288.0,1600.0,-6.0,9.0,3.0
36.91209435462952,,,552.0,-297.0,1537.0,-7.0,11.0,2.0
36.93254256248474,,,569.0,-291.0,1510.0,-7.0,11.0,2.0
36.95309090614319,,,591.0,-278.0,1476.0,-7.0,11.0,2.0
36.973379611968994,,,605.0,-257.0,1347.0,-7.0,13.0,3.0
36.993921518325806,,,600.0,-261.0,1235.0,-8.0,14.0,3.0
37.01042890548706,,,619.0,-240.0,1012.0,-9.0,18.0,3.0
37.03074884414673,,,654.0,-202.0,943.0,-9.0,21.0,3.0
37.05125617980957,,,705.0,-171.0,890.0,-9.0,23.0,4.0
37.0718514919281,,,745.0,-148.0,811.0,-9.0,27.0,6.0
37.09239888191223,,,703.0,-153.0,803.0,-10.0,28.0,7.0
37.1126389503479,,,630.0,-179.0,786.0,-11.0,29.0,7.0
37.13335704803467,,,607.0,-183.0,846.0,-14.0,30.0,6.0
37.153679847717285,,,663.0,-179.0,892.0,-14.0,31.0,6.0
37.17423462867737,,,751.0,-161.0,925.0,-15.0,31.0,8.0
37.19470930099487,,,935.0,-100.0,997.0,-15.0,33.0,13.0
37.215195655822754,,,974.0,-88.0,1011.0,-15.0,34.0,16.0
37.23572850227356,,,960.0,-125.0,993.0,-15.0,34.0,21.0
37.256128549575806,,,951.0,-111.0,994.0,-15.0,35.0,24.0
37.276578187942505,,,929.0,-96.0,1011.0,-15.0,35.0,25.0
37.29712390899658,,,939.0,-74.0,1046.0,-14.0,33.0,27.0
37.31755208969116,,,899.0,-31.0,1068.0,-13.0,33.0,27.0
37.33801984786987,,,828.0,-16.0,1084.0,-12.0,31.0,27.0
37.358466386795044,,,712.0,-49.0,1070.0,-9.0,26.0,21.0
37.3789496421814,,,675.0,-41.0,1026.0,-6.0,24.0,17.0
37.39955711364746,,,706.0,-31.0,1016.0,-4.0,22.0,12.0
37.419979095458984,,,900.0,72.0,958.0,2.0,20.0,9.0
37.440404653549194,,,923.0,155.0,923.0,5.0,20.0,10.0
37.460853576660156,,,907.0,225.0,946.0,6.0,20.0,12.0
37.48143935203552,,,751.0,279.0,1010.0,7.0,17.0,16.0
37.50177812576294,,,610.0,228.0,1005.0,7.0,15.0,18.0
37.52237939834595,,,213.0,-56.0,1088.0,4.0,14.0,22.0
37.54282832145691,,,-27.0,-235.0,1137.0,1.0,13.0,19.0
37.56330704689026,,,-229.0,-388.0,1154.0,-2.0,11.0,13.0
37.583951234817505,,,-374.0,-524.0,1144.0,-4.0,5.0,-1.0
37.60410451889038,,,-265.0,-468.0,1164.0,-2.0,2.0,-8.0
37.62473130226135,,,-93.0,-371.0,1156.0,0.0,0.0,-14.0
37.645140647888184,,,274.0,-212.0,1084.0,2.0,-3.0,-17.0
37.66562628746033,,,456.0,-171.0,1027.0,2.0,-3.0,-16.0
37.68613934516907,,,647.0,-163.0,960.0,1.0,-4.0,-13.0
37.70663022994995,,,964.0,-182.0,875.0,1.0,-4.0,-6.0
37.727283239364624,,,1001.0,-218.0,822.0,1.0,-5.0,-3.0
37.74757122993469,,,877.0,-311.0,620.0,0.0,-6.0,0.0
37.768091917037964,,,773.0,-314.0,498.0,-2.0,-6.0,-1.0
37.78872084617615,,,685.0,-274.0,397.0,-3.0,-6.0,-2.0
37.80907487869263,,,594.0,-163.0,244.0,-5.0,-5.0,-4.0
37.82960629463196,,,580.0,-90.0,188.0,-7.0,-4.0,-4.0
37.84996747970581,,,570.0,-13.0,162.0,-8.0,-2.0,-5.0
37.870490312576294,,,574.0,69.0,98.0,-9.0,1.0,-6.0
37.891033411026,,,594.0,84.0,72.0,-10.0,2.0,-6.0
37.911524295806885,,,605.0,91.0,69.0,-10.0,4.0,-7.0
37.93194341659546,,,650.0,18.0,106.0,-10.0,5.0,-9.0
37.952392578125,,,736.0,-24.0,147.0,-9.0,6.0,-11.0
37.972877740859985,,,870.0,-49.0,214.0,-8.0,6.0,-12.0
37.99337935447693,,,1105.0,-94.0,435.0,-4.0,6.0,-10.0
38.01387691497803,,,1154.0,-144.0,539.0,-4.0,7.0,-8.0
38.034390449523926,,,1185.0,-224.0,703.0,-5.0,7.0,-2.0
38.05475425720215,,,1189.0,-261.0,718.0,-6.0,7.0,2.0
38.07524800300598,,,1170.0,-279.0,698.0,-7.0,7.0,5.0
38.091652393341064,,,1013.0,-305.0,582.0,-9.0,7.0,11.0
38.11207437515259,,,889.0,-299.0,519.0,-9.0,6.0,12.0
38.13268733024597,,,780.0,-288.0,476.0,-9.0,6.0,11.0
38.15317940711975,,,678.0,-256.0,446.0,-8.0,5.0,8.0
38.173476219177246,,,650.0,-228.0,442.0,-7.0,5.0,7.0
38.19823145866394,,,584.0,-163.0,436.0,-6.0,4.0,6.0
38.21858549118042,,,549.0,-148.0,450.0,-6.0,4.0,6.0
38.239182233810425,,,531.0,-114.0,460.0,-7.0,5.0,5.0
38.259642601013184,,,587.0,-47.0,529.0,-7.0,5.0,6.0
38.280112743377686,,,655.0,0.0,559.0,-5.0,5.0,6.0
38.300580739974976,,,714.0,23.0,615.0,-3.0,6.0,6.0
38.321043252944946,,,760.0,10.0,791.0,0.0,4.0,5.0
38.341532945632935,,,762.0,-32.0,801.0,1.0,3.0,5.0
38.362027406692505,,,770.0,-83.0,804.0,1.0,2.0,5.0
38.38249325752258,,,765.0,-125.0,802.0,1.0,0.0,6.0
38.402998208999634,,,733.0,-122.0,772.0,1.0,-1.0,6.0
38.4234664440155,,,656.0,-116.0,678.0,1.0,-1.0,8.0
38.4438738822937,,,594.0,-94.0,594.0,1.0,-2.0,8.0
38.46437168121338,,,534.0,-71.0,514.0,2.0,-2.0,9.0
38.48482918739319,,,363.0,-40.0,327.0,2.0,-1.0,7.0
38.505526065826416,,,318.0,-34.0,297.0,1.0,-2.0,6.0
38.525923013687134,,,281.0,-47.0,272.0,1.0,-2.0,5.0
38.54628348350525,,,286.0,-38.0,266.0,1.0,-1.0,3.0
38.56686210632324,,,296.0,-31.0,274.0,1.0,0.0,2.0
38.58721113204956,,,329.0,-26.0,301.0,1.0,0.0,1.0
38.607720613479614,,,428.0,-16.0,423.0,3.0,0.0,0.0
38.628159046173096,,,507.0,-2.0,498.0,3.0,0.0,-1.0
38.64865589141846,,,716.0,3.0,648.0,5.0,0.0,-1.0
38.669169187545776,,,824.0,-17.0,671.0,6.0,0.0,0.0
38.6896538734436,,,929.0,-44.0,674.0,7.0,1.0,1.0
38.71008491516113,,,1117.0,-84.0,644.0,8.0,2.0,3.0
38.73067784309387,,,1238.0,-85.0,611.0,9.0,3.0,3.0
38.751152992248535,,,1372.0,-77.0,571.0,10.0,4.0,4.0
38.77151608467102,,,1494.0,-2.0,512.0,13.0,8.0,7.0
38.7920036315918,,,1555.0,30.0,518.0,15.0,11.0,9.0
38.80844736099243,,,1623.0,53.0,544.0,17.0,13.0,10.0
38.828919887542725,,,1703.0,40.0,629.0,20.0,16.0,14.0
38.84937572479248,,,1704.0,30.0,635.0,20.0,17.0,16.0
38.869842767715454,,,1715.0,-4.0,647.0,21.0,18.0,17.0
38.890498638153076,,,1788.0,-22.0,782.0,25.0,19.0,20.0
38.910829305648804,,,1790.0,18.0,921.0,27.0,18.0,24.0
38.931344509124756,,,1549.0,138.0,1295.0,29.0,13.0,33.0
38.95181918144226,,,1303.0,182.0,1471.0,29.0,10.0,37.0
38.97222185134888,,,982.0,192.0,1533.0,29.0,7.0,41.0
38.99270987510681,,,296.0,154.0,1258.0,26.0,1.0,45.0
39.01317119598389,,,-7.0,134.0,987.0,24.0,-2.0,45.0
39.03377914428711,,,-273.0,102.0,710.0,23.0,-4.0,44.0
39.05413818359375,,,-730.0,85.0,214.0,19.0,-9.0,37.0
39.074594020843506,,,-938.0,84.0,91.0,18.0,-11.0,32.0
39.09504532814026,,,-1128.0,71.0,16.0,16.0,-12.0,27.0
39.11555290222168,,,-1346.0,50.0,-9.0,11.0,-11.0,15.0
39.136104106903076,,,-1349.0,55.0,14.0,9.0,-10.0,9.0
39.15650987625122,,,-1145.0,172.0,59.0,4.0,-8.0,-1.0
39.17710733413696,,,-941.0,282.0,95.0,2.0,-8.0,-5.0
39.19751214981079,,,-710.0,401.0,145.0,1.0,-8.0,-7.0
39.21808457374573,,,-303.0,558.0,197.0,1.0,-10.0,-12.0
39.23848009109497,,,-142.0,587.0,218.0,1.0,-12.0,-14.0
39.25898480415344,,,19.0,603.0,253.0,1.0,-13.0,-15.0
39.27965593338013,,,334.0,675.0,264.0,1.0,-16.0,-15.0
39.300058126449585,,,465.0,675.0,221.0,0.0,-16.0,-13.0
39.32046055793762,,,569.0,676.0,145.0,-1.0,-16.0,-10.0
39.340911626815796,,,715.0,649.0,89.0,-2.0,-16.0,-5.0
39.36144232749939,,,740.0,652.0,130.0,0.0,-17.0,-3.0
39.381844997406006,,,732.0,674.0,239.0,2.0,-17.0,-2.0
39.40236020088196,,,618.0,670.0,457.0,8.0,-19.0,-3.0
39.422802686691284,,,539.0,605.0,482.0,10.0,-20.0,-6.0
39.443294286727905,,,375.0,441.0,463.0,13.0,-20.0,-11.0
39.46389150619507,,,292.0,404.0,505.0,14.0,-20.0,-13.0
39.484214544296265,,,192.0,381.0,575.0,14.0,-20.0,-13.0
39.504718542099,,,-9.0,373.0,693.0,11.0,-19.0,-14.0
39.52536201477051,,,-19.0,380.0,686.0,9.0,-18.0,-13.0
39.545716762542725,,,35.0,372.0,613.0,6.0,-16.0,-12.0
39.56611108779907,,,239.0,339.0,392.0,0.0,-12.0,-7.0
39.58669424057007,,,328.0,309.0,315.0,-3.0,-11.0,-4.0
39.607218980789185,,,389.0,254.0,292.0,-5.0,-10.0,-2.0
39.62783217430115,,,410.0,150.0,320.0,-8.0,-10.0,0.0
39.64809727668762,,,354.0,86.0,363.0,-9.0,-10.0,0.0
39.6685848236084,,,186.0,19.0,553.0,-10.0,-10.0,-3.0
39.68903851509094,,,104.0,-18.0,689.0,-10.0,-10.0,-5.0
39.70948314666748,,,48.0,-50.0,806.0,-11.0,-11.0,-8.0
39.730135440826416,,,121.0,7.0,968.0,-11.0,-10.0,-11.0
39.7505145072937,,,203.0,49.0,1045.0,-10.0,-9.0,-12.0
39.77095317840576,,,293.0,70.0,1101.0,-9.0,-8.0,-11.0
39.79146766662598,,,432.0,76.0,1135.0,-6.0,-7.0,-9.0
39.81207847595215,,,495.0,78.0,1154.0,-5.0,-6.0,-8.0
39.832409143447876,,,541.0,67.0,1155.0,-3.0,-6.0,-6.0
39.85288715362549,,,540.0,46.0,1088.0,-1.0,-5.0,-3.0
39.86924433708191,,,496.0,24.0,1028.0,0.0,-4.0,-1.0
39.88969874382019,,,405.0,-1.0,978.0,1.0,-4.0,-1.0
39.91018223762512,,,180.0,-73.0,900.0,1.0,-3.0,-2.0
39.930814027786255,,,116.0,-96.0,871.0,0.0,-3.0,-3.0
39.951143980026245,,,108.0,-105.0,838.0,-1.0,-2.0,-3.0
39.97163534164429,,,116.0,-107.0,840.0,-1.0,-2.0,-3.0
39.992196559906006,,,89.0,-97.0,890.0,-1.0,-2.0,-3.0
,,,,,,,,
