time,/ext_usb_camera/image/compressed,robogame/imu_state,robogame/imu_state.linear_acc.x,robogame/imu_state.linear_acc.y,robogame/imu_state.linear_acc.z,robogame/imu_state.gyro.z,robogame/imu_state.gyro.x,robogame/imu_state.gyro.y
0.0,,,32.0,-11.0,1092.0,0.0,0.0,-1.0
0.020380496978759766,,,26.0,-12.0,1085.0,0.0,0.0,-1.0
0.040978431701660156,,,-17.0,-33.0,1086.0,0.0,0.0,-1.0
0.06154799461364746,,,-22.0,-46.0,1096.0,0.0,0.0,-1.0
0.08187699317932129,,,-22.0,-60.0,1099.0,0.0,0.0,-1.0
0.09842991828918457,,,-15.0,-45.0,1112.0,1.0,0.0,-1.0
0.11877775192260742,,,-5.0,-39.0,1108.0,1.0,0.0,-1.0
0.1395127773284912,,,-9.0,-62.0,1096.0,1.0,0.0,-1.0
0.1596674919128418,,,-15.0,-63.0,1093.0,1.0,0.0,-1.0
0.18027114868164062,,,-17.0,-49.0,1089.0,1.0,0.0,-1.0
0.20054078102111816,,,-15.0,-46.0,1109.0,2.0,0.0,-1.0
0.22139787673950195,,,0.0,-42.0,1134.0,2.0,-1.0,-1.0
0.24172282218933105,,,16.0,-16.0,1148.0,2.0,-1.0,0.0
0.2623598575592041,,,20.0,-17.0,1151.0,3.0,0.0,0.0
0.2827482223510742,,,7.0,-39.0,1184.0,3.0,0.0,0.0
0.30320310592651367,,,3.0,-53.0,1253.0,4.0,-1.0,0.0
0.32369565963745117,,,111.0,-16.0,1398.0,8.0,-3.0,-1.0
0.3441963195800781,,,198.0,-9.0,1444.0,12.0,-4.0,-3.0
0.36444616317749023,,,228.0,-60.0,1460.0,14.0,-4.0,-4.0
0.38498377799987793,,,227.0,-161.0,1549.0,19.0,-4.0,-2.0
0.4055171012878418,,,193.0,-187.0,1471.0,23.0,-5.0,-2.0
0.42603254318237305,,,109.0,-242.0,1090.0,31.0,-4.0,-5.0
0.4463381767272949,,,89.0,-365.0,1127.0,33.0,-5.0,-4.0
0.46703577041625977,,,-1.0,-453.0,1310.0,34.0,-6.0,0.0
0.48764538764953613,,,-182.0,-188.0,1787.0,33.0,-5.0,11.0
0.508040189743042,,,-183.0,-25.0,1961.0,33.0,-3.0,19.0
0.5283312797546387,,,-207.0,-37.0,2086.0,32.0,-4.0,26.0
0.5488357543945312,,,-510.0,-413.0,1850.0,27.0,-7.0,36.0
0.5694925785064697,,,-665.0,-528.0,1550.0,26.0,-7.0,34.0
0.5899455547332764,,,-745.0,-616.0,1296.0,25.0,-6.0,32.0
0.6103239059448242,,,-896.0,-624.0,1057.0,24.0,-3.0,33.0
0.6309523582458496,,,-967.0,-623.0,1031.0,24.0,-1.0,35.0
0.6514344215393066,,,-993.0,-930.0,938.0,19.0,-1.0,35.0
0.671856164932251,,,-990.0,-1178.0,811.0,16.0,-2.0,29.0
0.6923007965087891,,,-985.0,-1419.0,568.0,13.0,-3.0,23.0
0.7128252983093262,,,-1202.0,-1737.0,54.0,4.0,-5.0,8.0
0.7331335544586182,,,-1476.0,-1692.0,-128.0,1.0,-5.0,1.0
0.7535889148712158,,,-1818.0,-1523.0,-225.0,0.0,-2.0,-7.0
0.7740082740783691,,,-2513.0,-1063.0,-90.0,-4.0,3.0,-25.0
0.7945716381072998,,,-2686.0,-672.0,-31.0,-7.0,7.0,-33.0
0.8149406909942627,,,-2652.0,-122.0,-60.0,-11.0,11.0,-40.0
0.8353991508483887,,,-1453.0,1155.0,-276.0,-19.0,14.0,-60.0
0.8559143543243408,,,-333.0,1686.0,-356.0,-17.0,16.0,-62.0
0.8762617111206055,,,809.0,2058.0,-276.0,-9.0,20.0,-58.0
0.8966660499572754,,,2746.0,2288.0,138.0,17.0,32.0,-29.0
0.9170200824737549,,,2591.0,2101.0,872.0,17.0,40.0,-16.0
0.9376184940338135,,,1601.0,1391.0,2939.0,0.0,48.0,-5.0
0.9581644535064697,,,1592.0,1077.0,3866.0,-1.0,53.0,3.0
0.9785747528076172,,,1872.0,620.0,4433.0,3.0,54.0,12.0
0.9991986751556396,,,2608.0,-736.0,4306.0,14.0,48.0,23.0
1.0196199417114258,,,2760.0,-1302.0,3841.0,19.0,42.0,25.0
1.0401113033294678,,,2773.0,-1743.0,3285.0,22.0,34.0,25.0
1.0605769157409668,,,2270.0,-2455.0,2264.0,26.0,22.0,28.0
1.0810084342956543,,,1843.0,-2842.0,1885.0,24.0,17.0,31.0
1.1014668941497803,,,1358.0,-3269.0,1676.0,20.0,12.0,33.0
1.1220831871032715,,,360.0,-3499.0,1613.0,4.0,1.0,28.0
1.142528772354126,,,39.0,-3095.0,1557.0,-4.0,-1.0,21.0
1.1628758907318115,,,-959.0,-1979.0,1750.0,-15.0,-13.0,-2.0
1.179356336593628,,,-1701.0,-1104.0,1740.0,-20.0,-25.0,-27.0
1.199812412261963,,,-2009.0,263.0,1512.0,-26.0,-37.0,-52.0
1.2203598022460938,,,-1805.0,1853.0,1402.0,-28.0,-42.0,-62.0
1.240774393081665,,,-1536.0,3182.0,1632.0,-29.0,-40.0,-55.0
1.2612648010253906,,,-1480.0,4115.0,1984.0,-29.0,-35.0,-31.0
1.2818171977996826,,,-1500.0,5025.0,1639.0,-30.0,-20.0,10.0
1.3021070957183838,,,-1279.0,4866.0,990.0,-29.0,-13.0,19.0
1.3225762844085693,,,-974.0,4381.0,218.0,-28.0,-9.0,22.0
1.3431177139282227,,,-234.0,3217.0,-1564.0,-27.0,-5.0,19.0
1.3635761737823486,,,239.0,2547.0,-2406.0,-29.0,-7.0,16.0
1.3840415477752686,,,809.0,1740.0,-3134.0,-30.0,-9.0,15.0
1.4044640064239502,,,2035.0,170.0,-4401.0,-26.0,-6.0,22.0
1.424962043762207,,,2337.0,-402.0,-4740.0,-20.0,-5.0,28.0
1.4453623294830322,,,1499.0,-1118.0,-4031.0,-9.0,3.0,18.0
1.4659943580627441,,,904.0,-1429.0,-2727.0,-7.0,10.0,4.0
1.4864740371704102,,,375.0,-1632.0,-811.0,-10.0,13.0,-11.0
1.5069916248321533,,,-693.0,-1397.0,4068.0,-27.0,14.0,-32.0
1.5273303985595703,,,15.0,-956.0,5685.0,-28.0,12.0,-43.0
1.5479958057403564,,,1943.0,-473.0,5904.0,-21.0,12.0,-44.0
1.5683057308197021,,,3868.0,56.0,5702.0,-2.0,4.0,-19.0
1.5888848304748535,,,3336.0,216.0,5208.0,3.0,-7.0,-9.0
1.60929274559021,,,2372.0,468.0,4278.0,7.0,-10.0,-5.0
1.6298537254333496,,,670.0,788.0,3242.0,10.0,-8.0,-11.0
1.6502978801727295,,,481.0,629.0,3159.0,9.0,-18.0,-13.0
1.6707971096038818,,,395.0,456.0,2028.0,8.0,-31.0,-6.0
1.6912169456481934,,,212.0,591.0,1082.0,10.0,-28.0,-5.0
1.7117156982421875,,,-36.0,754.0,266.0,11.0,-23.0,-5.0
1.7321488857269287,,,-495.0,1154.0,-956.0,12.0,-15.0,0.0
1.7527318000793457,,,-627.0,1183.0,-1363.0,11.0,-11.0,3.0
1.7731959819793701,,,-685.0,1074.0,-1612.0,10.0,-7.0,5.0
1.7935268878936768,,,-635.0,781.0,-1726.0,10.0,1.0,7.0
1.8141348361968994,,,-637.0,681.0,-1605.0,10.0,4.0,4.0
1.8344974517822266,,,-722.0,598.0,-1265.0,10.0,6.0,-2.0
1.8550736904144287,,,-926.0,577.0,-221.0,4.0,5.0,-12.0
1.875607967376709,,,-823.0,734.0,261.0,2.0,6.0,-14.0
1.8961155414581299,,,-608.0,902.0,717.0,2.0,6.0,-16.0
1.9164092540740967,,,-160.0,816.0,1247.0,4.0,9.0,-15.0
1.9369840621948242,,,-34.0,619.0,1342.0,3.0,8.0,-13.0
1.957495927810669,,,82.0,462.0,1164.0,3.0,7.0,-11.0
1.9779000282287598,,,109.0,392.0,969.0,4.0,8.0,-12.0
1.9983749389648438,,,160.0,298.0,760.0,4.0,10.0,-12.0
2.0189101696014404,,,506.0,-66.0,370.0,5.0,11.0,-13.0
2.039339065551758,,,810.0,-299.0,74.0,5.0,10.0,-13.0
2.0598182678222656,,,1400.0,-670.0,-736.0,6.0,17.0,-9.0
2.0803823471069336,,,1342.0,-988.0,-825.0,5.0,22.0,-10.0
2.1007914543151855,,,1104.0,-1282.0,-539.0,3.0,24.0,-10.0
2.1214566230773926,,,381.0,-1331.0,619.0,5.0,25.0,-9.0
2.141874313354492,,,491.0,-1404.0,1035.0,10.0,25.0,3.0
2.1622767448425293,,,826.0,-1785.0,1327.0,17.0,22.0,13.0
2.182995557785034,,,470.0,-2360.0,1473.0,23.0,6.0,0.0
2.2034096717834473,,,-461.0,-1727.0,1259.0,22.0,4.0,-21.0
2.223903179168701,,,-1555.0,-945.0,1375.0,18.0,1.0,-45.0
2.2445719242095947,,,-1799.0,585.0,2457.0,5.0,-10.0,-67.0
2.265165090560913,,,-911.0,1308.0,2833.0,4.0,-8.0,-51.0
2.285456895828247,,,-23.0,1810.0,2924.0,5.0,-6.0,-26.0
2.3058996200561523,,,498.0,2060.0,1893.0,14.0,-1.0,12.0
2.3264267444610596,,,306.0,1744.0,963.0,18.0,1.0,16.0
2.3468735218048096,,,-7.0,413.0,-538.0,24.0,0.0,0.0
2.367332696914673,,,-192.0,-248.0,-1004.0,23.0,1.0,-6.0
2.387932300567627,,,-379.0,-716.0,-1269.0,20.0,1.0,-11.0
2.4084620475769043,,,-1002.0,-857.0,-1309.0,13.0,4.0,-18.0
2.4292094707489014,,,-1437.0,-850.0,-1048.0,8.0,4.0,-22.0
2.449324607849121,,,-1717.0,-843.0,-836.0,1.0,4.0,-26.0
2.469881057739258,,,-1380.0,-921.0,-435.0,-9.0,5.0,-26.0
2.4904279708862305,,,-875.0,-870.0,-339.0,-10.0,4.0,-26.0
2.511007308959961,,,-433.0,-694.0,-170.0,-8.0,6.0,-28.0
2.531266450881958,,,-188.0,-482.0,87.0,-7.0,11.0,-33.0
2.5518624782562256,,,-131.0,-687.0,318.0,-6.0,9.0,-35.0
2.572261333465576,,,167.0,-815.0,834.0,-3.0,0.0,-29.0
2.5928778648376465,,,358.0,-648.0,985.0,0.0,-2.0,-19.0
2.6133174896240234,,,444.0,-406.0,1042.0,4.0,-2.0,-11.0
2.6336262226104736,,,523.0,139.0,813.0,11.0,3.0,-1.0
2.6542084217071533,,,471.0,280.0,699.0,14.0,6.0,1.0
2.674734115600586,,,303.0,338.0,613.0,17.0,8.0,1.0
2.695281744003296,,,-22.0,339.0,385.0,21.0,13.0,-3.0
2.7157785892486572,,,-134.0,321.0,319.0,20.0,15.0,-3.0
2.736302375793457,,,-257.0,249.0,342.0,19.0,17.0,1.0
2.756568431854248,,,-480.0,-180.0,347.0,14.0,16.0,9.0
2.7771434783935547,,,-601.0,-445.0,285.0,12.0,14.0,11.0
2.7975754737854004,,,-715.0,-645.0,211.0,9.0,13.0,10.0
2.8179872035980225,,,-793.0,-807.0,191.0,4.0,9.0,3.0
2.838559150695801,,,-690.0,-800.0,278.0,2.0,7.0,0.0
2.859005928039551,,,-177.0,-563.0,487.0,0.0,2.0,3.0
2.8793787956237793,,,43.0,-413.0,496.0,0.0,2.0,6.0
2.8997724056243896,,,110.0,-337.0,415.0,0.0,2.0,8.0
2.9204373359680176,,,-125.0,-417.0,238.0,-1.0,0.0,7.0
2.9408421516418457,,,-252.0,-442.0,196.0,-1.0,-1.0,6.0
2.961405038833618,,,-327.0,-433.0,141.0,-1.0,-1.0,5.0
2.9778330326080322,,,-325.0,-414.0,75.0,-3.0,-1.0,4.0
2.9981272220611572,,,-250.0,-377.0,58.0,-4.0,-1.0,5.0
3.018709659576416,,,-185.0,-362.0,33.0,-4.0,-1.0,6.0
3.03898286819458,,,-159.0,-466.0,52.0,-5.0,-1.0,4.0
3.0596086978912354,,,-124.0,-469.0,105.0,-4.0,-2.0,3.0
3.079998254776001,,,120.0,-267.0,226.0,0.0,-4.0,5.0
3.1008026599884033,,,225.0,-148.0,283.0,2.0,-4.0,7.0
3.121199369430542,,,342.0,-66.0,297.0,4.0,-3.0,8.0
3.141552686691284,,,718.0,149.0,436.0,6.0,-1.0,15.0
3.162109613418579,,,1080.0,371.0,637.0,9.0,2.0,26.0
3.182692766189575,,,1607.0,459.0,868.0,15.0,4.0,37.0
3.2031733989715576,,,2525.0,-381.0,422.0,17.0,2.0,54.0
3.223587989807129,,,2592.0,-627.0,95.0,13.0,7.0,67.0
3.244149923324585,,,2440.0,-916.0,232.0,8.0,8.0,76.0
3.264616012573242,,,2386.0,-2018.0,-117.0,8.0,1.0,87.0
3.285127878189087,,,2394.0,-2787.0,-610.0,8.0,0.0,82.0
3.3055570125579834,,,2055.0,-3407.0,-844.0,6.0,2.0,64.0
3.32584547996521,,,1086.0,-4216.0,536.0,-9.0,-1.0,9.0
3.346266508102417,,,1100.0,-4846.0,1991.0,-15.0,-13.0,-13.0
3.3665168285369873,,,2299.0,-7208.0,5489.0,-32.0,-56.0,-57.0
3.3871850967407227,,,2537.0,-7569.0,7572.0,-40.0,-74.0,-55.0
3.4077565670013428,,,1609.0,-7329.0,10269.0,-41.0,-88.0,-38.0
3.4284701347351074,,,-413.0,-6523.0,12596.0,-53.0,-139.0,-8.0
3.4488813877105713,,,-230.0,-5319.0,11746.0,-64.0,-161.0,15.0
3.469280481338501,,,-100.0,-3737.0,10420.0,-71.0,-180.0,45.0
3.489607095718384,,,-1232.0,-47.0,7032.0,-67.0,-202.0,109.0
3.5102226734161377,,,-2866.0,2470.0,5611.0,-63.0,-190.0,144.0
3.5306217670440674,,,-4270.0,4905.0,4956.0,-56.0,-183.0,161.0
3.5512335300445557,,,-6871.0,8551.0,2886.0,-53.0,-165.0,108.0
3.5715062618255615,,,-7993.0,9765.0,1068.0,-64.0,-146.0,53.0
3.592118263244629,,,-4887.0,12439.0,-2508.0,-28.0,-90.0,-63.0
3.612586736679077,,,-2482.0,12736.0,-4019.0,-6.0,-61.0,-49.0
3.6330068111419678,,,-939.0,11943.0,-4804.0,10.0,-24.0,-4.0
3.6533968448638916,,,-816.0,8178.0,-5369.0,31.0,15.0,56.0
3.6739165782928467,,,-840.0,5918.0,-5799.0,34.0,27.0,53.0
3.694495677947998,,,-654.0,3736.0,-5957.0,29.0,35.0,29.0
3.7147843837738037,,,613.0,736.0,-5624.0,16.0,49.0,-18.0
3.7352280616760254,,,1244.0,-122.0,-5090.0,13.0,49.0,-27.0
3.755746603012085,,,1495.0,-926.0,-4688.0,15.0,45.0,-23.0
3.776163101196289,,,514.0,-2774.0,-3529.0,18.0,44.0,-5.0
3.7966537475585938,,,-558.0,-3133.0,-2035.0,21.0,41.0,1.0
3.8171205520629883,,,-1764.0,-3173.0,537.0,25.0,36.0,0.0
3.837677240371704,,,-3670.0,-2389.0,6822.0,25.0,23.0,-27.0
3.8581936359405518,,,-2690.0,-2191.0,8193.0,18.0,21.0,-40.0
3.87850022315979,,,-1557.0,-2674.0,9289.0,8.0,25.0,-72.0
3.898930549621582,,,-1992.0,-3100.0,9427.0,4.0,23.0,-96.0
3.919421672821045,,,-2180.0,-3275.0,9014.0,-1.0,23.0,-105.0
3.9398539066314697,,,-2550.0,-2509.0,8360.0,-12.0,27.0,-50.0
3.9603981971740723,,,-3003.0,-1958.0,7614.0,-16.0,29.0,-11.0
3.980818033218384,,,-3543.0,-1382.0,5924.0,-16.0,35.0,16.0
4.001386642456055,,,-4169.0,-1055.0,2023.0,-6.0,27.0,-17.0
4.021764516830444,,,-4022.0,-1670.0,632.0,5.0,4.0,-51.0
4.042327880859375,,,-4621.0,-1964.0,-450.0,-1.0,-11.0,-86.0
4.058686256408691,,,-5914.0,2672.0,257.0,-56.0,-35.0,-209.0
4.079188346862793,,,-3024.0,5854.0,956.0,-64.0,-37.0,-226.0
4.099712371826172,,,1805.0,5928.0,1937.0,-45.0,-33.0,-103.0
4.12006950378418,,,2346.0,4149.0,483.0,-39.0,-27.0,-38.0
4.140547275543213,,,2292.0,2180.0,-1815.0,-30.0,-20.0,-9.0
4.161229372024536,,,917.0,99.0,-5798.0,-35.0,-25.0,-37.0
4.181685209274292,,,564.0,458.0,-5997.0,-42.0,-22.0,-61.0
4.202181339263916,,,328.0,866.0,-5021.0,-38.0,-17.0,-64.0
4.222676992416382,,,-295.0,-103.0,-3721.0,-15.0,-16.0,-36.0
4.243157386779785,,,-1085.0,-444.0,-3815.0,-7.0,-23.0,-34.0
4.263509750366211,,,-2284.0,393.0,-3625.0,-9.0,-28.0,-45.0
4.283870220184326,,,-4179.0,5120.0,256.0,-17.0,-22.0,-81.0
4.304425001144409,,,-3120.0,6795.0,2793.0,-21.0,-26.0,-100.0
4.324875593185425,,,-819.0,7141.0,4615.0,-21.0,-24.0,-101.0
4.345432281494141,,,2568.0,5390.0,6431.0,-1.0,-3.0,-43.0
4.365845203399658,,,1966.0,5716.0,7777.0,-1.0,-11.0,4.0
4.386194467544556,,,894.0,4477.0,5950.0,8.0,-3.0,63.0
4.406684875488281,,,37.0,3035.0,4550.0,17.0,-2.0,67.0
4.42733359336853,,,-906.0,1534.0,3282.0,23.0,-7.0,64.0
4.451926946640015,,,-2599.0,-1324.0,1498.0,33.0,-17.0,40.0
4.472380638122559,,,-3483.0,-2221.0,1338.0,29.0,-20.0,18.0
4.492902040481567,,,-4378.0,-2261.0,2895.0,19.0,-26.0,-6.0
4.513701677322388,,,-3724.0,-2277.0,3245.0,22.0,-28.0,3.0
4.534243106842041,,,-2991.0,-2462.0,2909.0,28.0,-30.0,18.0
4.554672718048096,,,-2824.0,-2513.0,1263.0,26.0,-37.0,34.0
4.575068473815918,,,-3068.0,-2155.0,382.0,18.0,-38.0,27.0
4.595418214797974,,,-3290.0,-1619.0,-263.0,10.0,-38.0,13.0
4.615872859954834,,,-3264.0,-19.0,-380.0,0.0,-34.0,-10.0
4.636369943618774,,,-2854.0,822.0,6.0,-2.0,-30.0,-8.0
4.657191514968872,,,-2641.0,1455.0,731.0,-5.0,-26.0,-4.0
4.677720069885254,,,-2583.0,1751.0,1506.0,-3.0,-22.0,-5.0
4.698051452636719,,,-2433.0,1846.0,1877.0,3.0,-16.0,-10.0
4.718513488769531,,,-2984.0,3017.0,2248.0,-1.0,-4.0,-30.0
4.7389466762542725,,,-1614.0,2950.0,1837.0,-10.0,-10.0,-37.0
4.759466171264648,,,336.0,2259.0,873.0,-5.0,-5.0,-34.0
4.779884576797485,,,852.0,1515.0,-68.0,8.0,8.0,-18.0
4.800572633743286,,,219.0,1853.0,25.0,3.0,8.0,-10.0
4.82095193862915,,,-25.0,1914.0,-11.0,-1.0,8.0,-4.0
4.8415234088897705,,,-419.0,1631.0,-773.0,0.0,10.0,13.0
4.862040281295776,,,-1161.0,1768.0,-1230.0,0.0,13.0,18.0
4.882491111755371,,,-2174.0,2025.0,-1465.0,-5.0,16.0,14.0
4.902949333190918,,,-2998.0,2886.0,-930.0,-20.0,19.0,-14.0
4.923579931259155,,,-2436.0,2914.0,-415.0,-21.0,20.0,-25.0
4.943910360336304,,,-1348.0,2093.0,132.0,-15.0,22.0,-15.0
4.964294195175171,,,-1433.0,1788.0,129.0,-14.0,22.0,-9.0
4.984878778457642,,,-1752.0,1625.0,55.0,-14.0,21.0,-11.0
5.00523829460144,,,-2315.0,1232.0,-363.0,-15.0,24.0,-30.0
5.0256171226501465,,,-2512.0,774.0,-711.0,-20.0,22.0,-34.0
5.046277284622192,,,-2312.0,164.0,-837.0,-27.0,18.0,-31.0
5.066550254821777,,,-881.0,-319.0,1962.0,-19.0,20.0,-36.0
5.087274551391602,,,438.0,-415.0,4860.0,4.0,20.0,-53.0
5.107563257217407,,,1353.0,-1126.0,6710.0,22.0,18.0,-55.0
5.128157377243042,,,745.0,-1667.0,8506.0,41.0,22.0,15.0
5.148573398590088,,,-63.0,-1359.0,9334.0,52.0,19.0,54.0
5.169118881225586,,,-1648.0,-211.0,8454.0,56.0,12.0,90.0
5.189563512802124,,,-2246.0,583.0,7392.0,47.0,14.0,91.0
5.210060358047485,,,-2533.0,935.0,6339.0,40.0,16.0,92.0
5.226273536682129,,,-3498.0,704.0,4098.0,46.0,19.0,91.0
5.246817350387573,,,-4172.0,258.0,2394.0,44.0,21.0,87.0
5.267219066619873,,,-4800.0,-377.0,249.0,34.0,25.0,83.0
5.2875683307647705,,,-5272.0,-2032.0,-4359.0,10.0,31.0,54.0
5.308011054992676,,,-4804.0,-3139.0,-5950.0,0.0,36.0,31.0
5.328508377075195,,,-4199.0,-3946.0,-6709.0,-10.0,37.0,10.0
5.349139451980591,,,-4193.0,-2592.0,-5273.0,-38.0,42.0,-25.0
5.369397878646851,,,-4373.0,-412.0,-2770.0,-52.0,43.0,-53.0
5.389893054962158,,,-3417.0,1380.0,544.0,-52.0,39.0,-86.0
5.410432815551758,,,146.0,350.0,2827.0,-43.0,32.0,-93.0
5.4308764934539795,,,1297.0,-820.0,2170.0,-39.0,27.0,-72.0
5.451207399368286,,,2405.0,-1025.0,985.0,-42.0,12.0,-22.0
5.471768140792847,,,2358.0,-472.0,653.0,-42.0,12.0,-12.0
5.4928295612335205,,,2230.0,179.0,883.0,-39.0,18.0,-11.0
5.513225317001343,,,3049.0,1237.0,2267.0,-34.0,14.0,-1.0
5.533556938171387,,,3732.0,1647.0,2298.0,-29.0,13.0,19.0
5.554093599319458,,,3988.0,2082.0,1893.0,-21.0,17.0,43.0
5.574543237686157,,,3380.0,3253.0,1168.0,-2.0,28.0,78.0
5.594923257827759,,,2411.0,3555.0,882.0,7.0,36.0,87.0
5.615400791168213,,,1176.0,3409.0,554.0,6.0,44.0,86.0
5.635976314544678,,,798.0,2719.0,-75.0,-19.0,41.0,63.0
5.656595230102539,,,1463.0,2529.0,-421.0,-23.0,39.0,69.0
5.677029371261597,,,1792.0,1242.0,-979.0,-7.0,46.0,92.0
5.697289943695068,,,1463.0,-194.0,-873.0,2.0,53.0,86.0
5.717856407165527,,,1082.0,-1822.0,29.0,3.0,58.0,72.0
5.738321542739868,,,1118.0,-4027.0,5277.0,-15.0,58.0,30.0
5.758756399154663,,,2657.0,-4316.0,8026.0,-18.0,51.0,14.0
5.77913498878479,,,4715.0,-4097.0,9920.0,-4.0,52.0,12.0
5.7997424602508545,,,8099.0,-4615.0,7734.0,36.0,49.0,41.0
5.820311069488525,,,7696.0,-4441.0,5829.0,56.0,48.0,61.0
5.840648174285889,,,5868.0,-4316.0,4206.0,59.0,38.0,61.0
5.861214637756348,,,2276.0,-3139.0,82.0,40.0,19.0,51.0
5.88167405128479,,,1798.0,-2512.0,-2100.0,38.0,16.0,62.0
5.901930570602417,,,1622.0,-2450.0,-4043.0,45.0,16.0,75.0
5.92246675491333,,,4.0,-3689.0,-6632.0,25.0,20.0,59.0
5.942687273025513,,,54.0,-3401.0,-6951.0,4.0,22.0,38.0
5.963208913803101,,,2743.0,-885.0,-6153.0,1.0,19.0,39.0
5.9837658405303955,,,3030.0,-455.0,-5030.0,8.0,23.0,70.0
6.004150152206421,,,1812.0,-1121.0,-2753.0,8.0,34.0,86.0
6.0246312618255615,,,393.0,-2802.0,4548.0,-3.0,42.0,-2.0
6.045439004898071,,,2602.0,-2043.0,6289.0,2.0,31.0,-51.0
6.065940856933594,,,4956.0,-855.0,6187.0,13.0,36.0,-34.0
6.086454629898071,,,4849.0,-581.0,6642.0,21.0,27.0,37.0
6.107003450393677,,,3262.0,-1493.0,6932.0,17.0,30.0,36.0
6.127707004547119,,,2516.0,-2704.0,6717.0,11.0,30.0,18.0
6.148129940032959,,,4223.0,-2839.0,4698.0,6.0,20.0,22.0
6.1685261726379395,,,4680.0,-2539.0,3663.0,7.0,7.0,35.0
6.188734292984009,,,3857.0,-2508.0,657.0,8.0,-6.0,29.0
6.209234952926636,,,3082.0,-2518.0,-571.0,6.0,-11.0,17.0
6.229600191116333,,,2390.0,-2331.0,-1183.0,2.0,-14.0,4.0
6.250370264053345,,,1521.0,-1575.0,-1017.0,-10.0,-19.0,-5.0
6.270605802536011,,,1281.0,-1024.0,-599.0,-14.0,-18.0,-2.0
6.291120290756226,,,1123.0,-465.0,-64.0,-14.0,-15.0,0.0
6.307440280914307,,,1283.0,413.0,535.0,-9.0,-11.0,-1.0
6.3279218673706055,,,1392.0,621.0,606.0,-7.0,-10.0,-5.0
6.348254203796387,,,1335.0,786.0,713.0,-7.0,-10.0,-9.0
6.368690252304077,,,964.0,1233.0,1141.0,-7.0,-5.0,-12.0
6.389176368713379,,,1049.0,1508.0,1210.0,-4.0,-2.0,-9.0
6.409797191619873,,,1221.0,1575.0,1094.0,2.0,2.0,-1.0
6.4301300048828125,,,1149.0,985.0,721.0,8.0,5.0,8.0
6.450727224349976,,,984.0,679.0,590.0,7.0,6.0,7.0
6.471154451370239,,,503.0,135.0,612.0,4.0,6.0,-1.0
6.491697788238525,,,357.0,-80.0,619.0,0.0,6.0,-9.0
6.512083530426025,,,445.0,-96.0,600.0,-3.0,5.0,-18.0
6.532614707946777,,,877.0,232.0,623.0,-4.0,4.0,-26.0
6.553050518035889,,,990.0,419.0,693.0,-4.0,4.0,-25.0
6.573589563369751,,,1039.0,589.0,757.0,-3.0,4.0,-21.0
6.59399938583374,,,1015.0,736.0,679.0,-1.0,6.0,-11.0
6.614579677581787,,,939.0,667.0,617.0,-1.0,7.0,-10.0
6.634965181350708,,,847.0,560.0,590.0,-1.0,7.0,-13.0
6.655553102493286,,,882.0,545.0,712.0,0.0,6.0,-16.0
6.676051378250122,,,989.0,572.0,772.0,-1.0,5.0,-13.0
6.6965014934539795,,,1104.0,594.0,752.0,-1.0,6.0,-2.0
6.716917991638184,,,1105.0,515.0,786.0,-1.0,5.0,1.0
6.737450361251831,,,1105.0,432.0,834.0,0.0,4.0,3.0
6.75779128074646,,,1064.0,137.0,949.0,1.0,0.0,4.0
6.778430700302124,,,1082.0,-22.0,872.0,1.0,-2.0,3.0
6.798797130584717,,,1163.0,-133.0,661.0,1.0,-2.0,0.0
6.819154739379883,,,1660.0,23.0,-117.0,4.0,-1.0,2.0
6.840166807174683,,,1895.0,129.0,-412.0,6.0,2.0,9.0
6.860750436782837,,,1879.0,-51.0,-371.0,5.0,5.0,16.0
6.8811328411102295,,,978.0,-915.0,691.0,0.0,4.0,26.0
6.901664733886719,,,155.0,-1317.0,1387.0,0.0,2.0,19.0
6.922134876251221,,,-566.0,-1534.0,1876.0,1.0,-2.0,1.0
6.942437648773193,,,-868.0,-1208.0,2113.0,-1.0,-12.0,-32.0
6.967199325561523,,,-893.0,-887.0,2360.0,-3.0,-14.0,-35.0
6.987577676773071,,,-1021.0,-148.0,2626.0,-3.0,-17.0,-14.0
7.008030414581299,,,-1105.0,25.0,2254.0,0.0,-16.0,0.0
7.024500131607056,,,-1273.0,-136.0,1645.0,4.0,-16.0,5.0
7.044987440109253,,,-1799.0,-685.0,248.0,4.0,-19.0,-9.0
7.065331935882568,,,-2049.0,-741.0,-240.0,-1.0,-21.0,-20.0
7.08585524559021,,,-1940.0,-168.0,-650.0,-7.0,-25.0,-32.0
7.106292724609375,,,-1591.0,177.0,-730.0,-5.0,-28.0,-31.0
7.126750469207764,,,-1251.0,451.0,-840.0,-4.0,-29.0,-27.0
7.147311210632324,,,-1455.0,875.0,-584.0,-7.0,-24.0,-15.0
7.16779088973999,,,-1922.0,1201.0,-189.0,-7.0,-22.0,-12.0
7.188326358795166,,,-2289.0,1674.0,165.0,-3.0,-20.0,-11.0
7.208953380584717,,,-2129.0,2353.0,617.0,4.0,-17.0,-20.0
7.229304790496826,,,-1637.0,2556.0,748.0,1.0,-18.0,-28.0
7.249753713607788,,,-899.0,2928.0,1032.0,-2.0,-18.0,-29.0
7.2702648639678955,,,809.0,3752.0,1741.0,1.0,-8.0,-14.0
7.290812015533447,,,1730.0,4038.0,1912.0,4.0,2.0,-3.0
7.311161279678345,,,2992.0,3226.0,2432.0,-4.0,26.0,19.0
7.331519365310669,,,3601.0,2612.0,2512.0,-16.0,34.0,35.0
7.352171421051025,,,4215.0,2051.0,2371.0,-25.0,41.0,59.0
7.372742414474487,,,3208.0,195.0,2473.0,-19.0,46.0,99.0
7.3929548263549805,,,1558.0,-1247.0,2832.0,-10.0,44.0,94.0
7.413361549377441,,,105.0,-2738.0,2763.0,-6.0,40.0,70.0
7.433699607849121,,,778.0,-4126.0,409.0,-10.0,28.0,11.0
7.454320430755615,,,2007.0,-4200.0,-990.0,-6.0,15.0,3.0
7.474701642990112,,,2635.0,-4140.0,-2472.0,-2.0,3.0,10.0
7.495259523391724,,,1347.0,-3766.0,-4342.0,-3.0,-4.0,30.0
7.515674114227295,,,504.0,-3253.0,-4457.0,2.0,0.0,33.0
7.536599159240723,,,-179.0,-2635.0,-4202.0,6.0,5.0,22.0
7.556960344314575,,,-2034.0,-483.0,-2643.0,-3.0,7.0,-22.0
7.577242612838745,,,-2736.0,2203.0,-1349.0,-10.0,8.0,-43.0
7.597809791564941,,,-1433.0,8478.0,2076.0,-4.0,15.0,-16.0
7.618292808532715,,,-691.0,9901.0,2930.0,16.0,31.0,33.0
7.638606548309326,,,-780.0,9884.0,3321.0,32.0,44.0,69.0
7.659319162368774,,,-1715.0,7661.0,2276.0,33.0,42.0,78.0
7.679692268371582,,,-2096.0,6130.0,1298.0,31.0,39.0,76.0
7.700155019760132,,,-2309.0,4223.0,557.0,31.0,35.0,68.0
7.720456123352051,,,-2498.0,644.0,104.0,30.0,30.0,31.0
7.7412779331207275,,,-2078.0,-107.0,369.0,23.0,34.0,10.0
7.761675119400024,,,-924.0,-309.0,1267.0,4.0,36.0,0.0
7.78230357170105,,,2572.0,27.0,4351.0,-10.0,35.0,48.0
7.802638530731201,,,3832.0,16.0,5077.0,5.0,39.0,64.0
7.8230977058410645,,,5251.0,-1230.0,4235.0,10.0,26.0,0.0
7.843614816665649,,,5831.0,-829.0,3435.0,10.0,16.0,-21.0
7.864102840423584,,,6220.0,56.0,2618.0,12.0,9.0,-9.0
7.884375095367432,,,5810.0,1370.0,-548.0,25.0,3.0,61.0
7.904886722564697,,,5214.0,843.0,-2698.0,25.0,0.0,80.0
7.925173759460449,,,4556.0,-159.0,-4755.0,18.0,-8.0,86.0
7.94571328163147,,,3564.0,-2329.0,-7009.0,-9.0,-11.0,71.0
7.966095447540283,,,3329.0,-2858.0,-6514.0,-26.0,-7.0,52.0
7.986661195755005,,,3157.0,-2778.0,-4930.0,-41.0,-4.0,32.0
8.007097721099854,,,1823.0,-1850.0,1926.0,-55.0,19.0,12.0
8.027549743652344,,,2409.0,-549.0,6112.0,-49.0,16.0,-12.0
8.047914266586304,,,4106.0,1464.0,7444.0,-36.0,7.0,-32.0
8.06855320930481,,,4956.0,3712.0,8316.0,-25.0,1.0,-6.0
8.089221000671387,,,4507.0,4106.0,7821.0,-19.0,-8.0,12.0
8.105704069137573,,,4051.0,3612.0,4946.0,2.0,-7.0,50.0
8.12609577178955,,,3871.0,2841.0,3322.0,11.0,-10.0,67.0
8.146593809127808,,,3736.0,1983.0,1704.0,18.0,-13.0,85.0
8.167237997055054,,,3747.0,127.0,-550.0,21.0,-27.0,94.0
8.18765902519226,,,3521.0,-584.0,-978.0,17.0,-30.0,90.0
8.208209753036499,,,2982.0,-1015.0,-794.0,14.0,-32.0,84.0
8.22857403755188,,,1186.0,-1017.0,584.0,12.0,-30.0,57.0
8.249179601669312,,,15.0,-730.0,1318.0,12.0,-28.0,39.0
8.269647598266602,,,-1272.0,-199.0,1824.0,12.0,-25.0,20.0
8.29015064239502,,,-3356.0,1745.0,2311.0,14.0,-17.0,-9.0
8.310888051986694,,,-3667.0,2768.0,1681.0,17.0,-13.0,-6.0
8.331128120422363,,,-3981.0,3008.0,302.0,27.0,14.0,19.0
8.351538896560669,,,-3913.0,2299.0,111.0,26.0,21.0,26.0
8.37196159362793,,,-3582.0,1712.0,-148.0,21.0,25.0,27.0
8.392417669296265,,,-2191.0,1090.0,-760.0,13.0,25.0,22.0
8.412896633148193,,,-1471.0,941.0,-1024.0,10.0,25.0,21.0
8.433421611785889,,,-877.0,730.0,-1064.0,9.0,24.0,20.0
8.453663349151611,,,-279.0,37.0,-355.0,6.0,24.0,13.0
8.474161148071289,,,-38.0,-202.0,69.0,2.0,25.0,6.0
8.494601249694824,,,150.0,-355.0,685.0,-2.0,27.0,0.0
8.515137434005737,,,526.0,-525.0,2644.0,-8.0,30.0,-13.0
8.53564977645874,,,1097.0,46.0,2892.0,-6.0,29.0,-19.0
8.556212186813354,,,1747.0,808.0,2514.0,-2.0,29.0,-21.0
8.576796293258667,,,2299.0,1000.0,1942.0,0.0,24.0,-18.0
8.597211122512817,,,2174.0,840.0,1973.0,-6.0,18.0,-22.0
8.617715120315552,,,1740.0,1239.0,2063.0,-10.0,13.0,-25.0
8.638126850128174,,,1588.0,1528.0,2010.0,-9.0,11.0,-20.0
8.658869743347168,,,1490.0,1772.0,1903.0,-7.0,11.0,-12.0
8.679250240325928,,,1520.0,1731.0,1825.0,-5.0,8.0,-2.0
8.699762344360352,,,1508.0,1458.0,1852.0,-5.0,5.0,-2.0
8.720515251159668,,,1403.0,1318.0,1739.0,-5.0,0.0,-3.0
8.740664958953857,,,922.0,1239.0,957.0,0.0,-5.0,6.0
8.761137247085571,,,641.0,893.0,384.0,3.0,-8.0,10.0
8.781670570373535,,,304.0,389.0,-181.0,4.0,-10.0,8.0
8.801954746246338,,,-187.0,-175.0,-438.0,0.0,-11.0,1.0
8.82265830039978,,,-766.0,-481.0,-330.0,-6.0,-15.0,-8.0
8.842990398406982,,,-1772.0,-21.0,-105.0,-7.0,-17.0,-14.0
8.863651037216187,,,-2276.0,207.0,95.0,-1.0,-13.0,-8.0
8.884040117263794,,,-2849.0,252.0,385.0,3.0,-9.0,-2.0
8.90473222732544,,,-3463.0,468.0,710.0,1.0,-7.0,-5.0
8.925055027008057,,,-3310.0,1021.0,490.0,3.0,-7.0,-8.0
8.945461750030518,,,-3006.0,1654.0,244.0,7.0,-5.0,-9.0
8.965871334075928,,,-2578.0,2451.0,-34.0,10.0,-2.0,0.0
8.986460208892822,,,-2506.0,2522.0,110.0,9.0,-1.0,7.0
9.006969451904297,,,-2264.0,2430.0,344.0,10.0,1.0,12.0
9.027421712875366,,,-1711.0,2156.0,775.0,12.0,8.0,7.0
9.047905445098877,,,-1000.0,1877.0,1543.0,14.0,13.0,-1.0
9.068501710891724,,,-355.0,1827.0,2322.0,13.0,15.0,-9.0
9.088836193084717,,,1282.0,2369.0,3329.0,8.0,20.0,-16.0
9.10951018333435,,,2191.0,2561.0,3858.0,5.0,21.0,-12.0
9.129744291305542,,,3382.0,2441.0,4455.0,2.0,15.0,6.0
9.150362730026245,,,3596.0,1724.0,4763.0,2.0,13.0,3.0
9.170736074447632,,,3809.0,803.0,5207.0,-1.0,11.0,-13.0
9.187151193618774,,,4726.0,-9.0,5762.0,1.0,9.0,-47.0
9.207583665847778,,,5128.0,-27.0,5545.0,5.0,7.0,-52.0
9.228161334991455,,,5324.0,-108.0,4932.0,4.0,2.0,-49.0
9.248568773269653,,,4809.0,-24.0,2267.0,0.0,-8.0,-44.0
9.269237041473389,,,4359.0,-73.0,695.0,-1.0,-11.0,-42.0
9.289621591567993,,,3808.0,-84.0,-817.0,0.0,-13.0,-37.0
9.310116291046143,,,2900.0,39.0,-3267.0,1.0,-18.0,-28.0
9.330574989318848,,,2707.0,309.0,-4234.0,0.0,-21.0,-28.0
9.35097050666809,,,2012.0,742.0,-5297.0,-4.0,-27.0,-22.0
9.371562242507935,,,1076.0,807.0,-5131.0,-5.0,-28.0,-15.0
9.391782522201538,,,-42.0,792.0,-4536.0,-7.0,-29.0,-12.0
9.412378787994385,,,-2060.0,697.0,-2680.0,-15.0,-25.0,-14.0
9.432724475860596,,,-2727.0,846.0,-1706.0,-15.0,-23.0,-13.0
9.45334792137146,,,-3096.0,1159.0,-1019.0,-11.0,-20.0,-11.0
9.477872371673584,,,-3373.0,1078.0,-83.0,-2.0,-11.0,-5.0
9.498409271240234,,,-3457.0,672.0,560.0,1.0,-8.0,-4.0
9.51880168914795,,,-3026.0,-40.0,1579.0,11.0,-5.0,-8.0
9.53950548171997,,,-2605.0,-469.0,1583.0,14.0,-5.0,-11.0
9.559834480285645,,,-2352.0,-1120.0,1578.0,15.0,-7.0,-19.0
9.580473899841309,,,-1919.0,-1817.0,1700.0,8.0,-14.0,-45.0
9.600936889648438,,,-1290.0,-1416.0,1648.0,4.0,-14.0,-59.0
9.62132453918457,,,-556.0,-787.0,1763.0,2.0,-12.0,-62.0
9.641793251037598,,,617.0,-190.0,2511.0,-1.0,-8.0,-46.0
9.662334680557251,,,855.0,-349.0,2836.0,-6.0,-7.0,-37.0
9.682783603668213,,,1019.0,-456.0,3189.0,-13.0,-6.0,-35.0
9.703144550323486,,,2288.0,164.0,3373.0,-9.0,-8.0,-32.0
9.72370171546936,,,2933.0,361.0,2985.0,-4.0,-12.0,-22.0
9.744107007980347,,,2477.0,-452.0,2434.0,-11.0,-22.0,-23.0
9.764397382736206,,,2084.0,-691.0,2547.0,-13.0,-21.0,-29.0
9.785085439682007,,,1919.0,-733.0,2971.0,-13.0,-20.0,-31.0
9.805408000946045,,,2453.0,-8.0,3251.0,-7.0,-24.0,-13.0
9.826014041900635,,,2868.0,296.0,2831.0,1.0,-23.0,2.0
9.84646201133728,,,2928.0,87.0,2250.0,9.0,-24.0,15.0
9.866997003555298,,,1979.0,-832.0,802.0,13.0,-29.0,16.0
9.887316942214966,,,1605.0,-1055.0,117.0,13.0,-26.0,10.0
9.90388011932373,,,1341.0,-1222.0,-248.0,13.0,-21.0,4.0
9.924328804016113,,,700.0,-1492.0,11.0,9.0,-18.0,-5.0
9.9450101852417,,,301.0,-1377.0,499.0,5.0,-17.0,-6.0
9.965281963348389,,,47.0,-1063.0,1014.0,2.0,-17.0,-6.0
9.985859870910645,,,48.0,-451.0,1716.0,4.0,-12.0,-2.0
10.006188869476318,,,143.0,-268.0,1917.0,7.0,-9.0,5.0
10.026832103729248,,,212.0,-364.0,1663.0,13.0,-7.0,20.0
10.047183275222778,,,26.0,-707.0,1299.0,13.0,-7.0,22.0
10.067671775817871,,,-122.0,-966.0,930.0,14.0,-6.0,20.0
10.087980270385742,,,-161.0,-987.0,518.0,17.0,3.0,14.0
10.108584880828857,,,76.0,-887.0,496.0,16.0,7.0,14.0
10.128855228424072,,,414.0,-733.0,465.0,16.0,12.0,16.0
10.149419784545898,,,808.0,-385.0,375.0,15.0,15.0,27.0
10.16989779472351,,,975.0,-150.0,167.0,17.0,19.0,31.0
10.190374612808228,,,1234.0,-19.0,-191.0,21.0,24.0,33.0
10.210806846618652,,,1648.0,-15.0,-1081.0,24.0,38.0,27.0
10.231306552886963,,,1653.0,68.0,-1461.0,23.0,43.0,26.0
10.252066135406494,,,1617.0,469.0,-1742.0,18.0,56.0,33.0
10.272631168365479,,,1808.0,720.0,-1572.0,19.0,62.0,42.0
10.293129205703735,,,2356.0,745.0,-1392.0,22.0,66.0,50.0
10.313473224639893,,,3457.0,321.0,-1548.0,20.0,64.0,41.0
10.333797216415405,,,3431.0,362.0,-1256.0,14.0,65.0,31.0
10.354401111602783,,,3089.0,321.0,-157.0,8.0,67.0,24.0
10.374634742736816,,,2495.0,244.0,4019.0,3.0,62.0,27.0
10.395171403884888,,,2436.0,616.0,5830.0,2.0,64.0,30.0
10.415597200393677,,,2465.0,937.0,7190.0,-5.0,73.0,36.0
10.436126947402954,,,2662.0,1055.0,8490.0,-14.0,88.0,63.0
10.456631422042847,,,2572.0,1001.0,8122.0,-12.0,89.0,82.0
10.477356195449829,,,2415.0,924.0,6864.0,-8.0,87.0,90.0
10.497737884521484,,,2181.0,788.0,5054.0,-9.0,83.0,82.0
10.518257856369019,,,1947.0,337.0,3432.0,-13.0,77.0,73.0
10.538981676101685,,,2421.0,-2362.0,2526.0,-15.0,59.0,65.0
10.559211492538452,,,2887.0,-3443.0,2515.0,-14.0,47.0,48.0
10.57961630821228,,,2856.0,-3455.0,2178.0,-18.0,33.0,14.0
10.600177526473999,,,1962.0,-787.0,1755.0,-29.0,0.0,-27.0
10.620718955993652,,,1692.0,75.0,2017.0,-33.0,-20.0,-11.0
10.641079664230347,,,1074.0,51.0,2199.0,-38.0,-33.0,11.0
10.661643266677856,,,-774.0,-644.0,2236.0,-56.0,-50.0,26.0
10.682230710983276,,,-1386.0,-751.0,2496.0,-65.0,-61.0,27.0
10.702555894851685,,,-1643.0,-779.0,3097.0,-71.0,-72.0,38.0
10.723098993301392,,,-2517.0,-701.0,4853.0,-75.0,-81.0,68.0
10.743559837341309,,,-3022.0,-610.0,5552.0,-75.0,-85.0,68.0
10.764038562774658,,,-3191.0,-516.0,6175.0,-69.0,-87.0,40.0
10.784427404403687,,,-3399.0,-638.0,6710.0,-68.0,-86.0,28.0
10.804914712905884,,,-3924.0,-983.0,7418.0,-67.0,-84.0,16.0
10.825484275817871,,,-5041.0,-939.0,7357.0,-72.0,-77.0,-7.0
10.845537424087524,,,-5223.0,-397.0,6561.0,-71.0,-72.0,-20.0
10.866170406341553,,,-4972.0,319.0,5440.0,-63.0,-72.0,-31.0
10.886661291122437,,,-4853.0,965.0,2507.0,-47.0,-81.0,-8.0
10.907184839248657,,,-4433.0,1096.0,235.0,-49.0,-77.0,1.0
10.927626609802246,,,-3273.0,1556.0,-2201.0,-51.0,-72.0,-21.0
10.948166131973267,,,938.0,2814.0,-7558.0,-40.0,-61.0,-31.0
10.968730211257935,,,2617.0,2923.0,-9350.0,-32.0,-38.0,-13.0
10.985271692276001,,,2996.0,2628.0,-9512.0,-30.0,-20.0,-9.0
11.005872964859009,,,135.0,2368.0,-5327.0,-16.0,15.0,-38.0
11.026200294494629,,,-2007.0,2759.0,-986.0,-3.0,12.0,-56.0
11.04671573638916,,,-3840.0,5034.0,4373.0,33.0,-12.0,-91.0
11.067182064056396,,,-3435.0,5550.0,3687.0,45.0,5.0,-98.0
11.087582111358643,,,-4072.0,5063.0,3575.0,41.0,15.0,-100.0
11.108022928237915,,,-6132.0,2015.0,4330.0,40.0,23.0,-87.0
11.128381729125977,,,-5653.0,552.0,4210.0,46.0,33.0,-82.0
11.149106740951538,,,-4519.0,-689.0,3863.0,48.0,40.0,-88.0
11.169443607330322,,,-2180.0,-2381.0,1538.0,43.0,39.0,-99.0
11.190011262893677,,,-1145.0,-3263.0,296.0,34.0,33.0,-100.0
11.210480690002441,,,-318.0,-3971.0,-688.0,22.0,22.0,-98.0
11.231006383895874,,,949.0,-3957.0,-2249.0,14.0,10.0,-91.0
11.251439332962036,,,1697.0,-3759.0,-3036.0,17.0,2.0,-83.0
11.271992444992065,,,2022.0,-4874.0,-4842.0,8.0,-26.0,-86.0
11.29240369796753,,,1145.0,-5890.0,-5039.0,-8.0,-49.0,-109.0
11.312947988510132,,,0.0,-6061.0,-4698.0,-19.0,-70.0,-139.0
11.33322787284851,,,-1588.0,-4358.0,-3714.0,-9.0,-85.0,-154.0
11.353686809539795,,,-3096.0,-3497.0,-3497.0,-6.0,-92.0,-152.0
11.37412142753601,,,-5575.0,-1642.0,-3298.0,-16.0,-101.0,-160.0
11.39470911026001,,,-9345.0,5206.0,881.0,-52.0,-114.0,-211.0
11.4152512550354,,,-8436.0,7695.0,4356.0,-40.0,-103.0,-194.0
11.435778617858887,,,-7277.0,8292.0,7047.0,-25.0,-82.0,-147.0
11.456007719039917,,,-5804.0,7488.0,8147.0,-16.0,-72.0,-73.0
11.476429462432861,,,-4643.0,7175.0,6334.0,-12.0,-65.0,-62.0
11.497178077697754,,,-4194.0,6461.0,4243.0,-11.0,-54.0,-62.0
11.5176842212677,,,-4451.0,4724.0,740.0,-27.0,-51.0,-80.0
11.538169860839844,,,-3644.0,3953.0,-587.0,-32.0,-49.0,-86.0
11.558686017990112,,,-1889.0,2060.0,-1964.0,-21.0,-37.0,-71.0
11.579170942306519,,,-1592.0,980.0,-2207.0,-15.0,-34.0,-60.0
11.599666833877563,,,-1666.0,26.0,-2570.0,-15.0,-35.0,-60.0
11.620146036148071,,,-2191.0,-1102.0,-3574.0,-21.0,-41.0,-78.0
11.640598773956299,,,-2523.0,-1286.0,-3856.0,-23.0,-43.0,-86.0
11.661098003387451,,,-2945.0,-1355.0,-3931.0,-23.0,-46.0,-88.0
11.681506395339966,,,-4052.0,-1326.0,-4033.0,-25.0,-58.0,-83.0
11.701951265335083,,,-4479.0,-893.0,-4161.0,-28.0,-61.0,-81.0
11.722432136535645,,,-4728.0,-227.0,-4226.0,-30.0,-61.0,-80.0
11.742924690246582,,,-4808.0,1422.0,-3693.0,-31.0,-60.0,-78.0
11.763391971588135,,,-4861.0,2277.0,-3020.0,-31.0,-60.0,-79.0
11.783880949020386,,,-5467.0,4016.0,-592.0,-32.0,-65.0,-85.0
11.80443263053894,,,-5140.0,4469.0,643.0,-32.0,-62.0,-92.0
11.82484245300293,,,-4022.0,4579.0,1404.0,-32.0,-53.0,-103.0
11.845441341400146,,,-2255.0,3930.0,2738.0,-32.0,-43.0,-107.0
11.86562466621399,,,-1870.0,3755.0,4116.0,-29.0,-45.0,-100.0
11.886167287826538,,,-1601.0,3579.0,5696.0,-21.0,-39.0,-88.0
11.906607627868652,,,-1450.0,2494.0,6871.0,-3.0,-18.0,-79.0
11.927037239074707,,,-1879.0,1770.0,6770.0,3.0,-14.0,-81.0
11.947523593902588,,,-2346.0,1197.0,6877.0,9.0,-14.0,-71.0
11.9681236743927,,,-3128.0,1055.0,6862.0,28.0,-3.0,-21.0
11.988436937332153,,,-3499.0,1293.0,6221.0,35.0,3.0,-2.0
12.00903058052063,,,-2784.0,651.0,3504.0,49.0,10.0,12.0
12.029160261154175,,,-1790.0,-243.0,1718.0,58.0,15.0,18.0
12.04983139038086,,,-979.0,-1462.0,-280.0,66.0,21.0,28.0
12.070351839065552,,,-513.0,-3478.0,-4212.0,88.0,40.0,51.0
12.090790271759033,,,-361.0,-3512.0,-5031.0,84.0,41.0,47.0
12.111216068267822,,,288.0,-3137.0,-4446.0,68.0,38.0,27.0
12.131620645523071,,,1379.0,-2807.0,-1130.0,38.0,39.0,32.0
12.15209674835205,,,1451.0,-3016.0,306.0,38.0,48.0,64.0
12.172646284103394,,,309.0,-3365.0,2222.0,44.0,67.0,111.0
12.193073511123657,,,-730.0,-2972.0,2631.0,38.0,70.0,120.0
12.213441371917725,,,-1720.0,-2517.0,2999.0,27.0,71.0,115.0
12.234035730361938,,,-1949.0,-2944.0,3884.0,14.0,70.0,106.0
12.254393815994263,,,-2429.0,-2745.0,3542.0,12.0,72.0,114.0
12.274983882904053,,,-3517.0,-2241.0,2293.0,5.0,70.0,105.0
12.295513153076172,,,-4914.0,-1830.0,-1590.0,-23.0,63.0,58.0
12.315998315811157,,,-5238.0,-1830.0,-2886.0,-34.0,59.0,33.0
12.336366415023804,,,-5312.0,-1829.0,-3224.0,-42.0,54.0,22.0
12.35706377029419,,,-3088.0,-2565.0,-3531.0,-41.0,46.0,57.0
12.37744951248169,,,-1765.0,-3577.0,-4681.0,-29.0,49.0,83.0
12.397861003875732,,,-2372.0,-3814.0,-7360.0,-31.0,42.0,80.0
12.418300151824951,,,-3230.0,-1737.0,-6693.0,-44.0,49.0,44.0
12.439561128616333,,,-3751.0,496.0,-3254.0,-58.0,57.0,-6.0
12.459782361984253,,,-724.0,1220.0,6353.0,-34.0,55.0,-38.0
12.480261087417603,,,1261.0,764.0,8657.0,-21.0,58.0,-4.0
12.50075912475586,,,2692.0,185.0,8804.0,-15.0,58.0,29.0
12.521342992782593,,,4456.0,77.0,4237.0,6.0,64.0,86.0
12.541706323623657,,,4118.0,516.0,1013.0,18.0,70.0,117.0
12.562171220779419,,,2750.0,679.0,-1700.0,20.0,71.0,137.0
12.582597494125366,,,323.0,-1180.0,-4870.0,27.0,59.0,133.0
12.603123188018799,,,-63.0,-2131.0,-6095.0,35.0,54.0,131.0
12.623684167861938,,,-253.0,-2863.0,-7194.0,34.0,50.0,124.0
12.644107103347778,,,132.0,-4848.0,-7419.0,8.0,52.0,54.0
12.664478302001953,,,904.0,-5274.0,-5030.0,-5.0,56.0,29.0
12.685121774673462,,,2465.0,-5047.0,5027.0,1.0,62.0,8.0
12.705350399017334,,,3826.0,-5006.0,8763.0,1.0,62.0,-8.0
12.725899696350098,,,5140.0,-5076.0,11371.0,-4.0,60.0,-23.0
12.746278524398804,,,7636.0,-3021.0,11419.0,19.0,60.0,30.0
12.76682996749878,,,7210.0,-2066.0,9964.0,32.0,44.0,68.0
12.78730320930481,,,5524.0,-2493.0,7561.0,38.0,43.0,82.0
12.803723573684692,,,2526.0,-4599.0,2380.0,30.0,34.0,75.0
12.824299573898315,,,2621.0,-4658.0,-197.0,34.0,26.0,67.0
12.844881772994995,,,3516.0,-4066.0,-2602.0,48.0,19.0,60.0
12.865255355834961,,,3488.0,-3360.0,-6205.0,48.0,12.0,30.0
12.885682106018066,,,2892.0,-2811.0,-6818.0,36.0,11.0,19.0
12.90607738494873,,,2716.0,-1890.0,-6950.0,28.0,12.0,29.0
12.92664361000061,,,3432.0,-497.0,-7328.0,21.0,21.0,62.0
12.947081804275513,,,3729.0,-341.0,-7907.0,15.0,28.0,75.0
12.967517137527466,,,2406.0,-2034.0,-6840.0,-12.0,48.0,51.0
12.98798155784607,,,1498.0,-2729.0,-4122.0,-27.0,57.0,18.0
13.008586406707764,,,1299.0,-2485.0,37.0,-30.0,57.0,-20.0
13.02895712852478,,,3329.0,-87.0,5556.0,-30.0,40.0,-23.0
13.049269676208496,,,3707.0,854.0,6696.0,-32.0,43.0,12.0
13.069775104522705,,,3542.0,1083.0,7634.0,-34.0,47.0,37.0
13.090227365493774,,,4255.0,649.0,7196.0,-26.0,50.0,43.0
13.11074423789978,,,5312.0,580.0,6561.0,-21.0,48.0,45.0
13.131219625473022,,,6250.0,751.0,5912.0,-15.0,43.0,65.0
13.151782274246216,,,5809.0,-294.0,3780.0,-8.0,29.0,83.0
13.172360181808472,,,5243.0,-1327.0,2476.0,-11.0,25.0,72.0
13.193126440048218,,,4708.0,-2741.0,676.0,-22.0,22.0,36.0
13.213179111480713,,,4512.0,-2745.0,463.0,-29.0,18.0,21.0
13.233856678009033,,,4194.0,-2189.0,599.0,-34.0,15.0,15.0
13.254351377487183,,,3291.0,-1145.0,1423.0,-43.0,13.0,14.0
13.274837493896484,,,2774.0,-658.0,1775.0,-46.0,11.0,16.0
13.29520559310913,,,2167.0,21.0,1995.0,-44.0,11.0,19.0
13.315773487091064,,,1070.0,1124.0,2093.0,-37.0,10.0,11.0
13.336275577545166,,,722.0,1388.0,1936.0,-35.0,9.0,2.0
13.35685920715332,,,442.0,1555.0,1706.0,-33.0,6.0,-3.0
13.377170324325562,,,-150.0,1852.0,1194.0,-25.0,-3.0,-2.0
13.397753953933716,,,-555.0,1971.0,855.0,-20.0,-5.0,6.0
13.418196439743042,,,-1031.0,1964.0,600.0,-16.0,-6.0,13.0
13.438695907592773,,,-2112.0,1686.0,288.0,-17.0,-4.0,17.0
13.45909070968628,,,-2527.0,1516.0,216.0,-19.0,0.0,16.0
13.47974181175232,,,-2222.0,1171.0,285.0,-18.0,3.0,0.0
13.499982118606567,,,-1712.0,1223.0,330.0,-16.0,2.0,-5.0
13.520752429962158,,,-1208.0,1416.0,262.0,-13.0,0.0,-4.0
13.541217565536499,,,-365.0,1354.0,-198.0,-5.0,-3.0,9.0
13.561644554138184,,,-110.0,1081.0,-519.0,-3.0,-4.0,11.0
13.58202075958252,,,74.0,776.0,-828.0,-1.0,-6.0,6.0
13.602580785751343,,,186.0,485.0,-1073.0,-2.0,-8.0,-4.0
13.622944116592407,,,279.0,215.0,-1167.0,-5.0,-8.0,-17.0
13.643483877182007,,,450.0,190.0,-1123.0,-10.0,-7.0,-28.0
13.66393518447876,,,970.0,929.0,-727.0,-10.0,-4.0,-27.0
13.684488296508789,,,1176.0,1313.0,-429.0,-8.0,-4.0,-17.0
13.704832553863525,,,1225.0,1517.0,-396.0,-3.0,-3.0,-2.0
13.725431680679321,,,1082.0,1386.0,-548.0,0.0,-1.0,-2.0
13.745988607406616,,,852.0,1078.0,-621.0,4.0,0.0,-5.0
13.766378164291382,,,70.0,277.0,-659.0,9.0,-5.0,-14.0
13.786747932434082,,,-427.0,16.0,-611.0,6.0,-6.0,-21.0
13.807302713394165,,,-883.0,52.0,-294.0,1.0,-9.0,-30.0
13.827683448791504,,,-1372.0,931.0,763.0,-4.0,-13.0,-32.0
13.848327159881592,,,-1355.0,1428.0,1165.0,-1.0,-13.0,-25.0
13.868747234344482,,,-1136.0,1850.0,1323.0,2.0,-12.0,-20.0
13.885193586349487,,,-134.0,2324.0,1216.0,1.0,-7.0,-23.0
13.905639410018921,,,511.0,2342.0,1453.0,-1.0,0.0,-23.0
13.926107168197632,,,1226.0,2228.0,1887.0,0.0,8.0,-23.0
13.946565628051758,,,2409.0,1974.0,2805.0,-1.0,17.0,-14.0
13.966946125030518,,,2606.0,1696.0,3320.0,-2.0,20.0,-8.0
13.987653017044067,,,2909.0,1036.0,3722.0,-1.0,22.0,-5.0
14.008050441741943,,,3323.0,836.0,3434.0,5.0,24.0,-5.0
14.02840542793274,,,3818.0,592.0,3013.0,13.0,22.0,-2.0
14.049085855484009,,,4141.0,140.0,1617.0,27.0,7.0,18.0
14.069502830505371,,,3267.0,-136.0,720.0,29.0,1.0,24.0
14.089929342269897,,,1717.0,-574.0,1.0,25.0,-3.0,21.0
14.110640525817871,,,-166.0,-1351.0,-82.0,13.0,-28.0,-9.0
14.130752801895142,,,-617.0,-836.0,111.0,10.0,-37.0,-20.0
14.151383638381958,,,-1178.0,-12.0,-57.0,10.0,-35.0,-24.0
14.17180585861206,,,-2403.0,886.0,-761.0,11.0,-27.0,-24.0
14.192204236984253,,,-3082.0,1149.0,-1162.0,12.0,-23.0,-21.0
14.212891817092896,,,-3744.0,1547.0,-1711.0,10.0,-20.0,-16.0
14.2332923412323,,,-3593.0,1720.0,-1914.0,6.0,-17.0,-15.0
14.253699779510498,,,-3249.0,1861.0,-2021.0,3.0,-13.0,-14.0
14.274427890777588,,,-2480.0,2051.0,-1466.0,1.0,-10.0,-8.0
14.294780492782593,,,-2008.0,2048.0,-781.0,3.0,-10.0,-5.0
14.315197706222534,,,-1406.0,1846.0,65.0,7.0,-9.0,-2.0
14.33562445640564,,,85.0,852.0,1766.0,6.0,-8.0,1.0
14.356189966201782,,,551.0,268.0,2509.0,2.0,-9.0,2.0
14.37657117843628,,,986.0,-152.0,3005.0,0.0,-9.0,2.0
14.397059917449951,,,2708.0,-215.0,2417.0,7.0,-6.0,-3.0
14.417598009109497,,,3046.0,-561.0,2484.0,5.0,-5.0,-2.0
14.437939405441284,,,3017.0,-1145.0,3099.0,-1.0,-9.0,-2.0
14.45858907699585,,,3394.0,-1109.0,3605.0,-2.0,-20.0,-1.0
14.478843688964844,,,3423.0,-1099.0,3505.0,1.0,-26.0,-5.0
14.503433465957642,,,2999.0,-1030.0,2365.0,3.0,-31.0,-16.0
14.523988962173462,,,2725.0,-1035.0,1707.0,2.0,-29.0,-18.0
14.544455766677856,,,2399.0,-1073.0,1175.0,0.0,-27.0,-18.0
14.564888954162598,,,1873.0,-717.0,401.0,-4.0,-24.0,-18.0
14.58518671989441,,,1796.0,-367.0,185.0,-5.0,-21.0,-14.0
14.601665258407593,,,1496.0,-202.0,103.0,-4.0,-15.0,0.0
14.622061967849731,,,1266.0,-379.0,2.0,-4.0,-14.0,1.0
14.64260983467102,,,1078.0,-564.0,-97.0,-6.0,-13.0,-1.0
14.663049936294556,,,644.0,-883.0,-9.0,-5.0,-10.0,-9.0
14.683726072311401,,,452.0,-822.0,143.0,-6.0,-8.0,-17.0
14.70413088798523,,,413.0,-540.0,407.0,-5.0,-6.0,-22.0
14.724853038787842,,,380.0,-126.0,1242.0,-3.0,-6.0,-20.0
14.74520754814148,,,137.0,-88.0,1669.0,-1.0,-7.0,-18.0
14.765518188476562,,,-119.0,20.0,1940.0,0.0,-8.0,-15.0
14.786027193069458,,,-129.0,382.0,1973.0,7.0,-6.0,-7.0
14.806628227233887,,,-179.0,345.0,1725.0,10.0,-4.0,-4.0
14.827096462249756,,,-159.0,-196.0,1035.0,15.0,0.0,-3.0
14.84774112701416,,,-125.0,-577.0,690.0,13.0,0.0,-5.0
14.868010997772217,,,-243.0,-915.0,378.0,10.0,-2.0,-8.0
14.888636589050293,,,-891.0,-1002.0,276.0,0.0,-5.0,-19.0
14.909136056900024,,,-1073.0,-762.0,671.0,-2.0,-5.0,-19.0
14.929476261138916,,,-971.0,-499.0,1230.0,-1.0,-5.0,-14.0
14.949851512908936,,,-508.0,-379.0,1899.0,4.0,-10.0,-2.0
14.97045087814331,,,-520.0,-477.0,1833.0,8.0,-12.0,-3.0
14.99081563949585,,,-642.0,-598.0,1579.0,9.0,-14.0,-8.0
15.011398315429688,,,-917.0,-411.0,969.0,8.0,-18.0,-17.0
15.031746625900269,,,-1130.0,-214.0,798.0,8.0,-17.0,-16.0
15.052335977554321,,,-1275.0,-144.0,701.0,10.0,-15.0,-11.0
15.07271409034729,,,-1248.0,-191.0,590.0,10.0,-15.0,-7.0
15.093320369720459,,,-1174.0,-288.0,406.0,10.0,-14.0,-7.0
15.11376428604126,,,-1304.0,-230.0,152.0,6.0,-14.0,-16.0
15.134291648864746,,,-1312.0,64.0,330.0,5.0,-13.0,-16.0
15.15469217300415,,,-1204.0,402.0,711.0,8.0,-11.0,-8.0
15.175227642059326,,,-834.0,464.0,1155.0,19.0,-8.0,13.0
15.195719718933105,,,-828.0,146.0,1062.0,22.0,-8.0,15.0
15.216144561767578,,,-950.0,-261.0,820.0,24.0,-8.0,8.0
15.236652851104736,,,-1247.0,-1080.0,329.0,23.0,-10.0,-18.0
15.25736379623413,,,-1343.0,-1175.0,173.0,17.0,-12.0,-29.0
15.27762484550476,,,-1412.0,-1000.0,254.0,12.0,-13.0,-34.0
15.298184394836426,,,-522.0,-131.0,1109.0,10.0,-9.0,-25.0
15.318576335906982,,,164.0,18.0,1807.0,14.0,-6.0,-12.0
15.339150428771973,,,809.0,-392.0,2365.0,16.0,-12.0,2.0
15.35952353477478,,,1146.0,-383.0,2103.0,15.0,-12.0,-7.0
15.380065202713013,,,1463.0,-273.0,1905.0,16.0,-8.0,-16.0
15.400477886199951,,,1376.0,-283.0,2276.0,15.0,-6.0,-15.0
15.421123743057251,,,1117.0,-332.0,2498.0,12.0,-9.0,-5.0
15.441734790802002,,,1066.0,-334.0,2358.0,9.0,-10.0,0.0
15.462003469467163,,,1266.0,-356.0,2028.0,2.0,1.0,-3.0
15.482483386993408,,,1092.0,-332.0,2413.0,-1.0,3.0,1.0
15.50279974937439,,,1119.0,-157.0,2804.0,1.0,2.0,15.0
15.523407459259033,,,1143.0,-678.0,2156.0,6.0,2.0,27.0
15.543812990188599,,,855.0,-1276.0,1464.0,7.0,2.0,18.0
15.564395189285278,,,588.0,-1775.0,929.0,8.0,4.0,4.0
15.584876775741577,,,120.0,-2254.0,1147.0,6.0,14.0,-21.0
15.605283975601196,,,-36.0,-2332.0,1870.0,3.0,16.0,-31.0
15.625649213790894,,,592.0,-1900.0,3349.0,4.0,10.0,-40.0
15.646019458770752,,,1109.0,-1427.0,3403.0,8.0,5.0,-35.0
15.666592597961426,,,1474.0,-945.0,2869.0,12.0,0.0,-26.0
15.682996034622192,,,1910.0,-362.0,570.0,11.0,-5.0,-4.0
15.703398704528809,,,1951.0,-80.0,-803.0,10.0,-2.0,4.0
15.72391676902771,,,1755.0,246.0,-2085.0,9.0,5.0,5.0
15.744422912597656,,,576.0,1012.0,-2993.0,-3.0,18.0,-10.0
15.764955997467041,,,54.0,1515.0,-2368.0,-13.0,20.0,-16.0
15.785719394683838,,,-166.0,1996.0,-1371.0,-22.0,22.0,-11.0
15.80599045753479,,,-538.0,2569.0,368.0,-31.0,28.0,23.0
15.826422929763794,,,-1086.0,2445.0,897.0,-34.0,34.0,36.0
15.847086668014526,,,-1541.0,2002.0,1715.0,-34.0,43.0,38.0
15.86741042137146,,,-1018.0,1725.0,1709.0,-30.0,46.0,39.0
15.888062477111816,,,-436.0,1320.0,1441.0,-26.0,47.0,44.0
15.90848159790039,,,244.0,459.0,749.0,-16.0,51.0,48.0
15.92892837524414,,,402.0,96.0,521.0,-15.0,52.0,43.0
15.94925332069397,,,435.0,-5.0,654.0,-17.0,49.0,41.0
15.970020294189453,,,712.0,306.0,1058.0,-9.0,40.0,53.0
15.990329027175903,,,892.0,260.0,904.0,-4.0,36.0,55.0
16.01095223426819,,,937.0,37.0,749.0,-2.0,34.0,52.0
16.03137516975403,,,624.0,-379.0,587.0,1.0,25.0,45.0
16.0519380569458,,,328.0,-464.0,468.0,2.0,20.0,43.0
16.072386741638184,,,41.0,-507.0,244.0,3.0,16.0,41.0
16.092880487442017,,,-571.0,-578.0,-126.0,0.0,12.0,33.0
16.113184452056885,,,-888.0,-608.0,-4.0,-1.0,12.0,26.0
16.133759021759033,,,-1285.0,-492.0,745.0,0.0,13.0,9.0
16.15415930747986,,,-1224.0,-291.0,1137.0,-1.0,13.0,0.0
16.174785137176514,,,-1055.0,-1.0,1463.0,-2.0,12.0,-4.0
16.195033311843872,,,-727.0,711.0,1817.0,-1.0,5.0,7.0
16.215752601623535,,,-688.0,786.0,1605.0,0.0,0.0,12.0
16.23608422279358,,,-766.0,553.0,1178.0,0.0,-3.0,13.0
16.256728172302246,,,-1082.0,-214.0,529.0,-4.0,-3.0,0.0
16.276978731155396,,,-1069.0,-372.0,549.0,-6.0,-1.0,-8.0
16.297595262527466,,,-824.0,-320.0,719.0,-5.0,0.0,-12.0
16.317912101745605,,,-436.0,-418.0,1189.0,-3.0,-1.0,-11.0
16.33855104446411,,,-329.0,-525.0,1191.0,-5.0,-5.0,-15.0
16.358905792236328,,,-15.0,-466.0,975.0,-8.0,-6.0,-28.0
16.379472494125366,,,198.0,-407.0,1046.0,-7.0,-5.0,-29.0
16.39983868598938,,,363.0,-425.0,1140.0,-7.0,-6.0,-27.0
16.42029070854187,,,290.0,-632.0,1402.0,-10.0,-4.0,-28.0
16.440744638442993,,,372.0,-597.0,1735.0,-9.0,-5.0,-30.0
16.461382150650024,,,542.0,-406.0,2215.0,-5.0,-6.0,-27.0
16.481688499450684,,,462.0,-678.0,3682.0,5.0,-5.0,-26.0
16.502269983291626,,,-66.0,-1111.0,4999.0,6.0,-5.0,-30.0
16.52275562286377,,,-354.0,-1138.0,6488.0,9.0,-9.0,-29.0
16.543346405029297,,,1187.0,464.0,7414.0,36.0,-8.0,8.0
16.563679218292236,,,2299.0,1121.0,6567.0,52.0,-9.0,36.0
16.584086418151855,,,3056.0,1402.0,4777.0,64.0,-14.0,55.0
16.60474467277527,,,2681.0,591.0,-1006.0,67.0,-33.0,53.0
16.625322103500366,,,2048.0,-53.0,-4185.0,56.0,-35.0,37.0
16.645779371261597,,,1159.0,-812.0,-8318.0,28.0,-25.0,-16.0
16.666256427764893,,,708.0,-714.0,-8957.0,19.0,-16.0,-28.0
16.686779022216797,,,-197.0,-663.0,-8786.0,10.0,-8.0,-31.0
16.707085847854614,,,-3442.0,-1772.0,-5618.0,-27.0,8.0,-44.0
16.727638721466064,,,-3275.0,-1128.0,-2565.0,-42.0,-2.0,-54.0
16.748010396957397,,,-906.0,938.0,67.0,-24.0,8.0,-32.0
16.764403104782104,,,5852.0,800.0,2732.0,26.0,26.0,32.0
16.78509497642517,,,6371.0,178.0,1968.0,23.0,-1.0,26.0
16.805384635925293,,,4319.0,-886.0,633.0,5.0,-19.0,10.0
16.82599687576294,,,430.0,-4220.0,4857.0,11.0,14.0,-4.0
16.84637212753296,,,1824.0,-5517.0,7887.0,18.0,0.0,-19.0
16.866941452026367,,,2211.0,-4258.0,10099.0,15.0,2.0,-42.0
16.88736867904663,,,1899.0,-4126.0,10895.0,7.0,3.0,-38.0
16.907689094543457,,,2304.0,-3439.0,11375.0,3.0,7.0,-23.0
16.928491592407227,,,2909.0,-1212.0,8219.0,-4.0,21.0,27.0
16.952964067459106,,,2944.0,-749.0,5145.0,-18.0,25.0,45.0
16.973613023757935,,,3100.0,-687.0,1755.0,-30.0,18.0,54.0
16.99392533302307,,,3067.0,-756.0,-1822.0,-35.0,18.0,64.0
17.01834535598755,,,2808.0,-1437.0,-4888.0,-41.0,26.0,74.0
17.038975715637207,,,1855.0,-4421.0,-6750.0,-69.0,35.0,64.0
17.05945110321045,,,1478.0,-5089.0,-6123.0,-84.0,36.0,37.0
17.07970356941223,,,1234.0,-3823.0,-3762.0,-107.0,22.0,-9.0
17.100319147109985,,,962.0,-2865.0,-2365.0,-108.0,16.0,-7.0
17.12065029144287,,,230.0,-2229.0,-54.0,-107.0,3.0,0.0
17.141300439834595,,,-2418.0,161.0,5449.0,-105.0,-31.0,10.0
17.161585092544556,,,-2947.0,2016.0,7061.0,-93.0,-43.0,16.0
17.182355403900146,,,-2342.0,3148.0,8343.0,-71.0,-47.0,23.0
17.202873706817627,,,-1494.0,2916.0,9937.0,-23.0,-62.0,37.0
17.223279237747192,,,-1958.0,2045.0,10124.0,-19.0,-70.0,28.0
17.24369168281555,,,-2678.0,1205.0,9900.0,-23.0,-75.0,14.0
17.26018476486206,,,-4434.0,2052.0,7830.0,-15.0,-67.0,8.0
17.280540704727173,,,-5177.0,3389.0,5901.0,-9.0,-53.0,24.0
17.301005363464355,,,-5389.0,4710.0,3594.0,-1.0,-34.0,27.0
17.321452856063843,,,-3757.0,5743.0,-3152.0,24.0,17.0,22.0
17.341956853866577,,,-2762.0,6217.0,-7316.0,25.0,41.0,40.0
17.36226797103882,,,-2382.0,6620.0,-13438.0,24.0,117.0,97.0
17.38291835784912,,,-2424.0,6496.0,-14610.0,20.0,145.0,95.0
17.403201818466187,,,-2645.0,6847.0,-13908.0,16.0,170.0,80.0
17.423998832702637,,,-3024.0,8216.0,-2596.0,3.0,194.0,135.0
17.444151878356934,,,-1946.0,9743.0,3033.0,-8.0,164.0,178.0
17.464635133743286,,,-1765.0,10942.0,6300.0,-18.0,131.0,227.0
17.485111713409424,,,-3418.0,10420.0,8700.0,29.0,110.0,289.0
17.505566120147705,,,-3956.0,6818.0,8637.0,44.0,95.0,274.0
17.526138067245483,,,-3450.0,2205.0,7211.0,40.0,86.0,245.0
17.546592473983765,,,2559.0,-3727.0,2497.0,13.0,60.0,192.0
17.56718349456787,,,6720.0,-5408.0,414.0,10.0,53.0,168.0
17.587681531906128,,,11638.0,-5489.0,-4904.0,-22.0,74.0,64.0
17.608225107192993,,,9610.0,-3486.0,-6319.0,-43.0,74.0,6.0
17.628867864608765,,,5149.0,-891.0,-7422.0,-37.0,74.0,10.0
17.64918875694275,,,-718.0,1544.0,-5733.0,-41.0,87.0,93.0
17.669703245162964,,,-1025.0,1105.0,-2482.0,-43.0,89.0,116.0
17.689942359924316,,,-1154.0,1413.0,975.0,-49.0,83.0,97.0
17.71056580543518,,,-3342.0,5180.0,2775.0,-32.0,67.0,76.0
17.730923652648926,,,-3765.0,6489.0,2126.0,-16.0,52.0,76.0
17.751537799835205,,,-3425.0,6765.0,1252.0,-4.0,38.0,76.0
17.77194857597351,,,-2013.0,6308.0,-2483.0,29.0,24.0,105.0
17.792486429214478,,,-882.0,5455.0,-4463.0,31.0,18.0,111.0
17.81288981437683,,,166.0,4207.0,-6085.0,20.0,10.0,108.0
17.833266973495483,,,-336.0,2192.0,-7892.0,7.0,1.0,79.0
17.853705406188965,,,-2045.0,2401.0,-8220.0,6.0,3.0,62.0
17.874106407165527,,,-5210.0,4009.0,-5932.0,4.0,13.0,116.0
17.894511222839355,,,-5173.0,4773.0,-1785.0,5.0,22.0,157.0
17.91498565673828,,,-4646.0,5406.0,1935.0,6.0,49.0,155.0
17.93543815612793,,,-7311.0,7254.0,3265.0,11.0,26.0,22.0
17.956008911132812,,,-9912.0,6466.0,3104.0,18.0,27.0,3.0
17.97644829750061,,,-10349.0,5671.0,3831.0,38.0,19.0,49.0
17.996925354003906,,,-5857.0,3961.0,1764.0,44.0,46.0,129.0
18.017426013946533,,,-4052.0,3945.0,642.0,38.0,47.0,137.0
18.038026332855225,,,-3558.0,4279.0,-242.0,34.0,40.0,119.0
18.05835509300232,,,-3518.0,5342.0,-746.0,35.0,34.0,86.0
18.078933000564575,,,-3742.0,5513.0,-884.0,39.0,36.0,80.0
18.09936785697937,,,-3686.0,5869.0,-2006.0,48.0,36.0,66.0
18.11988067626953,,,-3246.0,6108.0,-2648.0,49.0,34.0,62.0
18.140242099761963,,,-2723.0,6080.0,-3060.0,47.0,33.0,55.0
18.160878896713257,,,-2637.0,4911.0,-3317.0,34.0,33.0,39.0
18.181199550628662,,,-2666.0,4679.0,-2971.0,35.0,40.0,38.0
18.201797008514404,,,-2709.0,5290.0,-2882.0,35.0,44.0,28.0
18.222280025482178,,,-4237.0,4352.0,-3697.0,22.0,39.0,1.0
18.24265956878662,,,-4932.0,3490.0,-3289.0,4.0,33.0,-7.0
18.263190031051636,,,-5491.0,2807.0,-2194.0,-8.0,40.0,7.0
18.28370761871338,,,-6302.0,3009.0,724.0,-2.0,62.0,54.0
18.30404758453369,,,-5881.0,3714.0,1817.0,-9.0,71.0,49.0
18.324577569961548,,,-5518.0,4432.0,3046.0,-22.0,76.0,35.0
18.341053009033203,,,-6733.0,4628.0,5412.0,-28.0,75.0,45.0
18.361627101898193,,,-7108.0,4183.0,5667.0,-25.0,70.0,70.0
18.382105350494385,,,-5877.0,2589.0,3649.0,-22.0,57.0,84.0
18.40259099006653,,,-4569.0,1842.0,2470.0,-26.0,49.0,75.0
18.423052072525024,,,-2906.0,1400.0,1925.0,-32.0,44.0,65.0
18.44341492652893,,,-1293.0,1018.0,2407.0,-42.0,26.0,67.0
18.464027643203735,,,-1427.0,202.0,2509.0,-35.0,21.0,70.0
18.48440432548523,,,-1510.0,-514.0,2664.0,-28.0,18.0,73.0
18.505022287368774,,,-861.0,-249.0,2930.0,-22.0,8.0,78.0
18.525321006774902,,,-428.0,198.0,2987.0,-20.0,7.0,71.0
18.545814752578735,,,-185.0,604.0,2913.0,-19.0,8.0,57.0
18.566673755645752,,,-584.0,1415.0,2131.0,-16.0,7.0,31.0
18.58718776702881,,,-1084.0,1873.0,1320.0,-16.0,4.0,26.0
18.6076021194458,,,-1726.0,2655.0,-637.0,-26.0,-8.0,22.0
18.628205060958862,,,-2066.0,2662.0,-1543.0,-27.0,-15.0,20.0
18.648495197296143,,,-2539.0,2435.0,-2537.0,-25.0,-19.0,18.0
18.669188499450684,,,-3691.0,2325.0,-4369.0,-25.0,-23.0,9.0
18.689618587493896,,,-3902.0,2543.0,-4892.0,-28.0,-27.0,9.0
18.71014094352722,,,-3658.0,2732.0,-5114.0,-29.0,-25.0,10.0
18.73048710823059,,,-2418.0,3082.0,-4557.0,-36.0,-20.0,6.0
18.75108766555786,,,-1692.0,2936.0,-3814.0,-43.0,-20.0,2.0
18.77138924598694,,,-1055.0,2453.0,-2825.0,-49.0,-19.0,0.0
18.791998624801636,,,-836.0,1107.0,-326.0,-43.0,-18.0,2.0
18.812525987625122,,,-1066.0,491.0,565.0,-35.0,-18.0,3.0
18.832804918289185,,,-1151.0,158.0,1038.0,-30.0,-17.0,2.0
18.853292226791382,,,-856.0,-214.0,1374.0,-24.0,-16.0,-11.0
18.87379264831543,,,-602.0,-374.0,1529.0,-17.0,-16.0,-12.0
18.89424467086792,,,16.0,390.0,2758.0,3.0,-16.0,-6.0
18.914747714996338,,,273.0,798.0,3270.0,7.0,-17.0,-9.0
18.935307502746582,,,226.0,704.0,3354.0,9.0,-17.0,-16.0
18.955718517303467,,,-64.0,263.0,3344.0,11.0,-18.0,-23.0
18.97604537010193,,,-332.0,-360.0,3675.0,11.0,-24.0,-23.0
18.99652600288391,,,-394.0,-1085.0,4163.0,16.0,-28.0,-16.0
19.01702618598938,,,-606.0,-1757.0,4221.0,29.0,-14.0,-5.0
19.037351369857788,,,-890.0,-1670.0,4127.0,26.0,-2.0,-3.0
19.057870388031006,,,-1201.0,-1668.0,4281.0,18.0,5.0,3.0
19.078447580337524,,,-2546.0,-1805.0,3440.0,13.0,19.0,12.0
19.099006414413452,,,-3393.0,-1700.0,2529.0,9.0,27.0,7.0
19.119375944137573,,,-4114.0,-1450.0,1626.0,0.0,34.0,5.0
19.139837980270386,,,-4173.0,-1357.0,1205.0,0.0,33.0,5.0
19.16035747528076,,,-4265.0,-1279.0,354.0,3.0,32.0,7.0
19.180789470672607,,,-4461.0,-1029.0,-2163.0,11.0,29.0,26.0
19.20141911506653,,,-4402.0,-767.0,-3574.0,13.0,26.0,42.0
19.221959829330444,,,-4224.0,-290.0,-4844.0,12.0,21.0,51.0
19.242634534835815,,,-3681.0,991.0,-6624.0,-1.0,14.0,39.0
19.26297903060913,,,-3427.0,1477.0,-6815.0,-8.0,15.0,24.0
19.283587217330933,,,-3360.0,1715.0,-6299.0,-13.0,16.0,11.0
19.30388379096985,,,-3636.0,1574.0,-4068.0,-12.0,11.0,3.0
19.324413776397705,,,-3702.0,1555.0,-2666.0,-12.0,8.0,1.0
19.344825506210327,,,-3576.0,1740.0,-923.0,-15.0,5.0,-1.0
19.365375757217407,,,-3022.0,1743.0,3102.0,-16.0,4.0,1.0
19.38574481010437,,,-3044.0,1331.0,4476.0,-7.0,11.0,11.0
19.40635395050049,,,-3121.0,1634.0,5919.0,8.0,25.0,40.0
19.422854900360107,,,-2852.0,2141.0,6027.0,9.0,28.0,42.0
19.44303560256958,,,-2513.0,2637.0,5808.0,8.0,29.0,35.0
19.46359133720398,,,-2146.0,2998.0,4639.0,4.0,30.0,1.0
19.483932495117188,,,-2302.0,2762.0,3966.0,2.0,32.0,-13.0
19.504375457763672,,,-2722.0,2274.0,3110.0,-2.0,29.0,-20.0
19.529048442840576,,,-2887.0,1438.0,1183.0,-9.0,14.0,-25.0
19.549532413482666,,,-2364.0,1328.0,867.0,-23.0,2.0,-49.0
19.570096969604492,,,-1598.0,-396.0,1539.0,-34.0,-8.0,-79.0
19.59070658683777,,,-1791.0,-1231.0,2098.0,-26.0,-10.0,-72.0
19.610962390899658,,,-2137.0,-1855.0,2226.0,-18.0,-12.0,-60.0
19.6315336227417,,,-2751.0,-2735.0,1310.0,-4.0,-17.0,-36.0
19.65211534500122,,,-2783.0,-2725.0,1175.0,-2.0,-25.0,-33.0
19.672446727752686,,,-2496.0,-2618.0,1468.0,0.0,-30.0,-32.0
19.692852020263672,,,-1905.0,-3190.0,2470.0,3.0,-30.0,-16.0
19.713377952575684,,,-1654.0,-3596.0,3012.0,6.0,-26.0,3.0
19.733834981918335,,,-1284.0,-3597.0,3429.0,10.0,-19.0,24.0
19.754377841949463,,,-633.0,-2890.0,3207.0,15.0,-13.0,44.0
19.774670600891113,,,-366.0,-2597.0,2869.0,16.0,-11.0,48.0
19.79519009590149,,,-260.0,-2798.0,1045.0,15.0,-9.0,52.0
19.815465927124023,,,-430.0,-3060.0,-477.0,13.0,-7.0,60.0
19.836057901382446,,,-662.0,-3343.0,-2161.0,16.0,-3.0,78.0
19.85655379295349,,,-889.0,-3043.0,-5575.0,35.0,13.0,122.0
19.877007246017456,,,-851.0,-2218.0,-6942.0,38.0,23.0,129.0
19.897337198257446,,,-727.0,-1334.0,-7908.0,37.0,31.0,121.0
19.917969942092896,,,-907.0,-719.0,-8570.0,47.0,45.0,100.0
19.938437700271606,,,-873.0,140.0,-7617.0,44.0,63.0,94.0
19.958850145339966,,,-611.0,2150.0,-3840.0,21.0,80.0,74.0
19.979291915893555,,,-1378.0,-2139.0,2237.0,9.0,36.0,-14.0
19.999877452850342,,,-1212.0,-6137.0,1269.0,6.0,65.0,-7.0
20.02033281326294,,,-372.0,-6659.0,6763.0,1.0,72.0,94.0
20.040853023529053,,,297.0,-6424.0,8015.0,5.0,72.0,123.0
20.06130290031433,,,401.0,-5821.0,7864.0,11.0,89.0,133.0
20.0817711353302,,,-573.0,-4169.0,6845.0,13.0,76.0,132.0
20.10218048095703,,,-1121.0,-3597.0,5742.0,15.0,76.0,131.0
20.122746229171753,,,-1601.0,-2866.0,4696.0,16.0,77.0,130.0
20.13911509513855,,,-2487.0,-1347.0,2089.0,12.0,76.0,134.0
20.159626960754395,,,-2917.0,-766.0,362.0,9.0,72.0,135.0
20.18001914024353,,,-3320.0,-190.0,-1321.0,8.0,67.0,133.0
20.2005136013031,,,-4813.0,785.0,-4118.0,14.0,58.0,115.0
20.22099256515503,,,-6132.0,1369.0,-5447.0,13.0,58.0,90.0
20.241425275802612,,,-7387.0,1853.0,-6817.0,3.0,57.0,47.0
20.2619788646698,,,-7390.0,1146.0,-8457.0,-23.0,48.0,-23.0
20.282493591308594,,,-6353.0,318.0,-8459.0,-32.0,43.0,-33.0
20.302921295166016,,,-3349.0,-494.0,-6162.0,-52.0,33.0,-35.0
20.323448657989502,,,-1519.0,-432.0,-3141.0,-68.0,32.0,-54.0
20.343828916549683,,,838.0,-1356.0,1043.0,-83.0,36.0,-84.0
20.364453315734863,,,4771.0,-8109.0,6037.0,-74.0,29.0,-66.0
20.384931802749634,,,5147.0,-10577.0,7242.0,-63.0,26.0,-13.0
20.405348777770996,,,5372.0,-11349.0,7983.0,-53.0,14.0,31.0
20.425771236419678,,,5670.0,-9343.0,6984.0,-44.0,10.0,67.0
20.44636607170105,,,5794.0,-8180.0,5839.0,-31.0,12.0,84.0
20.46674609184265,,,5477.0,-7313.0,4391.0,-18.0,15.0,103.0
20.48723602294922,,,3035.0,-5550.0,1108.0,5.0,7.0,125.0
20.50771141052246,,,1878.0,-4639.0,-645.0,12.0,-3.0,128.0
20.528235912322998,,,559.0,-2968.0,-3956.0,19.0,-16.0,136.0
20.54863977432251,,,229.0,-2253.0,-5295.0,17.0,-16.0,142.0
20.569199085235596,,,203.0,-1787.0,-6283.0,9.0,-16.0,150.0
20.58970284461975,,,705.0,-1024.0,-6915.0,-4.0,-13.0,162.0
20.610211849212646,,,1020.0,-741.0,-6670.0,0.0,-3.0,167.0
20.630686044692993,,,1164.0,-646.0,-6173.0,11.0,12.0,168.0
20.651180267333984,,,811.0,-1668.0,-3068.0,14.0,30.0,134.0
20.671656131744385,,,1351.0,-2554.0,-832.0,3.0,28.0,112.0
20.69255495071411,,,2705.0,-3144.0,1004.0,-2.0,28.0,105.0
20.713231801986694,,,4873.0,-3140.0,2588.0,18.0,42.0,139.0
20.733515739440918,,,4309.0,-3172.0,3244.0,25.0,45.0,148.0
20.75391983985901,,,3285.0,-3469.0,3971.0,28.0,45.0,140.0
20.774470329284668,,,2178.0,-4834.0,5077.0,30.0,55.0,115.0
20.79514217376709,,,2530.0,-5448.0,4727.0,31.0,53.0,113.0
20.81542205810547,,,3091.0,-5578.0,3022.0,35.0,43.0,120.0
20.83582615852356,,,2572.0,-5485.0,2147.0,35.0,38.0,115.0
20.856261730194092,,,1833.0,-5386.0,1168.0,34.0,35.0,108.0
20.876620292663574,,,862.0,-5469.0,-506.0,28.0,35.0,91.0
20.897048711776733,,,913.0,-5624.0,-967.0,23.0,32.0,83.0
20.91740608215332,,,1336.0,-5700.0,-1146.0,20.0,27.0,81.0
20.937903881072998,,,2422.0,-5332.0,-709.0,27.0,23.0,87.0
20.958468437194824,,,2706.0,-5544.0,-116.0,31.0,21.0,84.0
20.978824615478516,,,2917.0,-5908.0,239.0,31.0,16.0,73.0
20.99938178062439,,,2967.0,-6451.0,184.0,25.0,14.0,50.0
21.020000219345093,,,2874.0,-6498.0,338.0,18.0,12.0,39.0
21.040651321411133,,,2694.0,-5749.0,649.0,8.0,6.0,28.0
21.06075119972229,,,2486.0,-5515.0,475.0,4.0,3.0,28.0
21.081267833709717,,,2210.0,-5589.0,84.0,2.0,0.0,27.0
21.101742267608643,,,1259.0,-6317.0,-1270.0,5.0,-10.0,3.0
21.122194051742554,,,444.0,-6601.0,-1829.0,4.0,-12.0,-24.0
21.1426203250885,,,-481.0,-6421.0,-1895.0,-7.0,-17.0,-62.0
21.16321301460266,,,-1243.0,-5414.0,-1482.0,-21.0,-25.0,-103.0
21.183542490005493,,,-1545.0,-3746.0,-725.0,-31.0,-34.0,-134.0
21.20419430732727,,,-1181.0,-1868.0,157.0,-36.0,-41.0,-136.0
21.220563173294067,,,-133.0,856.0,1810.0,-26.0,-39.0,-94.0
21.24098300933838,,,-187.0,1624.0,2081.0,-28.0,-40.0,-74.0
21.26124382019043,,,-169.0,2115.0,1915.0,-35.0,-43.0,-62.0
21.28189778327942,,,-306.0,2619.0,2530.0,-31.0,-46.0,-43.0
21.302263736724854,,,-542.0,2795.0,2894.0,-22.0,-40.0,-45.0
21.322829008102417,,,-1096.0,3033.0,2828.0,-15.0,-31.0,-88.0
21.34351348876953,,,-1153.0,3321.0,3350.0,-15.0,-32.0,-98.0
21.363863706588745,,,-662.0,3649.0,4452.0,-12.0,-37.0,-98.0
21.38430881500244,,,675.0,4349.0,6360.0,3.0,-37.0,-65.0
21.404760360717773,,,1236.0,4698.0,6779.0,10.0,-31.0,-50.0
21.4251708984375,,,1734.0,5129.0,6697.0,13.0,-26.0,-39.0
21.445728540420532,,,3034.0,5731.0,5039.0,15.0,-30.0,6.0
21.466151475906372,,,3051.0,5982.0,3302.0,19.0,-18.0,40.0
21.48650074005127,,,2921.0,5983.0,1185.0,26.0,9.0,67.0
21.507163763046265,,,4178.0,4019.0,-1700.0,26.0,32.0,68.0
21.52765464782715,,,5126.0,3199.0,-2039.0,12.0,39.0,87.0
21.54807424545288,,,5864.0,1618.0,-665.0,21.0,65.0,116.0
21.56855297088623,,,5871.0,862.0,-438.0,13.0,66.0,105.0
21.589049100875854,,,5513.0,395.0,-376.0,1.0,62.0,101.0
21.6096088886261,,,4465.0,-494.0,-958.0,-2.0,51.0,104.0
21.630198001861572,,,3831.0,-1226.0,-1366.0,2.0,48.0,101.0
21.65034818649292,,,2984.0,-2143.0,-1643.0,7.0,48.0,95.0
21.670931816101074,,,1987.0,-2978.0,-2841.0,9.0,49.0,68.0
21.69136333465576,,,2110.0,-2443.0,-3883.0,5.0,45.0,60.0
21.712052583694458,,,2202.0,-1961.0,-4544.0,3.0,38.0,70.0
21.73243737220764,,,1441.0,-3061.0,-4737.0,14.0,31.0,104.0
21.752982139587402,,,847.0,-4610.0,-4310.0,14.0,33.0,99.0
21.773853540420532,,,657.0,-6082.0,-3985.0,5.0,27.0,73.0
21.794209241867065,,,1205.0,-5730.0,-3726.0,-18.0,20.0,27.0
21.81481385231018,,,1025.0,-4434.0,-2792.0,-23.0,20.0,32.0
21.835235834121704,,,-117.0,-1829.0,176.0,-28.0,27.0,36.0
21.855774402618408,,,-129.0,-383.0,1372.0,-22.0,32.0,31.0
21.876142501831055,,,258.0,1098.0,2239.0,-15.0,38.0,29.0
21.89674973487854,,,1712.0,3412.0,2233.0,-3.0,31.0,45.0
21.91706109046936,,,2033.0,3818.0,1413.0,0.0,30.0,57.0
21.937407732009888,,,2107.0,3899.0,557.0,2.0,32.0,68.0
21.95791459083557,,,1913.0,3741.0,1641.0,0.0,53.0,87.0
21.97849988937378,,,2221.0,3732.0,3744.0,-1.0,63.0,94.0
21.998871326446533,,,3097.0,4059.0,5268.0,0.0,64.0,98.0
22.019169092178345,,,5096.0,4708.0,5982.0,16.0,63.0,117.0
22.03976535797119,,,5868.0,4406.0,6206.0,25.0,57.0,123.0
22.06012201309204,,,7062.0,2801.0,7640.0,34.0,59.0,106.0
22.080713272094727,,,7809.0,2683.0,6687.0,36.0,52.0,83.0
22.10099172592163,,,8170.0,3344.0,5370.0,39.0,43.0,68.0
22.121551752090454,,,7393.0,3971.0,3743.0,47.0,22.0,81.0
22.142038106918335,,,6749.0,3604.0,3019.0,48.0,18.0,94.0
22.16248059272766,,,5693.0,2587.0,1449.0,51.0,14.0,107.0
22.18290877342224,,,5269.0,1929.0,783.0,50.0,11.0,108.0
22.203402996063232,,,4917.0,1323.0,172.0,48.0,8.0,105.0
22.22378945350647,,,4515.0,790.0,-941.0,48.0,7.0,101.0
22.244436025619507,,,4556.0,763.0,-1284.0,50.0,7.0,99.0
22.26477551460266,,,4698.0,797.0,-1438.0,49.0,6.0,94.0
22.28534507751465,,,4834.0,877.0,-1366.0,47.0,6.0,71.0
22.305694341659546,,,4876.0,825.0,-1075.0,41.0,5.0,56.0
22.326342821121216,,,4816.0,923.0,-689.0,33.0,2.0,42.0
22.34679913520813,,,4309.0,1825.0,-293.0,23.0,2.0,24.0
22.367226362228394,,,4081.0,2211.0,-194.0,20.0,6.0,19.0
22.387783765792847,,,3953.0,2320.0,-43.0,17.0,9.0,14.0
22.408206701278687,,,3708.0,2051.0,301.0,6.0,10.0,0.0
22.428760528564453,,,3497.0,1799.0,435.0,0.0,11.0,-8.0
22.449167728424072,,,2888.0,1458.0,771.0,-12.0,10.0,-29.0
22.469698190689087,,,2422.0,1610.0,791.0,-14.0,5.0,-35.0
22.490115880966187,,,1830.0,1892.0,527.0,-11.0,2.0,-36.0
22.5106143951416,,,913.0,2080.0,-263.0,2.0,5.0,-37.0
22.530941247940063,,,720.0,1664.0,-570.0,7.0,1.0,-39.0
22.551403045654297,,,472.0,969.0,-726.0,8.0,-3.0,-36.0
22.57191491127014,,,-23.0,11.0,8.0,0.0,-3.0,-28.0
22.592578649520874,,,-48.0,225.0,455.0,-6.0,-2.0,-27.0
22.61308264732361,,,-124.0,966.0,556.0,-9.0,-5.0,-24.0
22.63356852531433,,,-356.0,2158.0,483.0,-9.0,-6.0,-4.0
22.653990983963013,,,-173.0,2003.0,802.0,-8.0,-2.0,3.0
22.67451000213623,,,534.0,1887.0,1333.0,-6.0,4.0,-12.0
22.695229291915894,,,738.0,2236.0,1454.0,-9.0,3.0,-19.0
22.715802907943726,,,762.0,2659.0,1651.0,-12.0,4.0,-16.0
22.73617124557495,,,882.0,2997.0,2170.0,-15.0,9.0,1.0
22.756916522979736,,,977.0,2962.0,2253.0,-15.0,10.0,5.0
22.777257919311523,,,1005.0,2926.0,2185.0,-16.0,10.0,1.0
22.797776460647583,,,984.0,3172.0,2031.0,-12.0,9.0,-10.0
22.818373680114746,,,1093.0,3391.0,1903.0,-8.0,8.0,-9.0
22.838886737823486,,,1213.0,3582.0,1669.0,-4.0,6.0,-4.0
22.8592209815979,,,1292.0,3350.0,1219.0,0.0,0.0,13.0
22.879560947418213,,,1233.0,2897.0,1084.0,1.0,-4.0,16.0
22.900190591812134,,,1104.0,2405.0,1051.0,0.0,-5.0,16.0
22.920525550842285,,,915.0,1628.0,1371.0,2.0,-7.0,12.0
22.940929174423218,,,814.0,1500.0,1502.0,4.0,-10.0,11.0
22.961458683013916,,,777.0,1580.0,1476.0,8.0,-15.0,8.0
22.981963396072388,,,697.0,1686.0,1365.0,10.0,-18.0,8.0
23.00239586830139,,,533.0,1818.0,1141.0,11.0,-18.0,6.0
23.023063898086548,,,346.0,1897.0,687.0,12.0,-14.0,6.0
23.03946042060852,,,298.0,1720.0,728.0,12.0,-11.0,10.0
23.0599205493927,,,231.0,1557.0,778.0,13.0,-9.0,13.0
23.080339908599854,,,326.0,1418.0,608.0,13.0,-3.0,11.0
23.100841522216797,,,466.0,1317.0,649.0,12.0,0.0,10.0
23.12130880355835,,,507.0,1299.0,827.0,10.0,2.0,10.0
23.141823768615723,,,423.0,1474.0,1052.0,9.0,4.0,12.0
23.162355184555054,,,451.0,1401.0,1110.0,9.0,4.0,12.0
23.182743549346924,,,450.0,1307.0,1146.0,8.0,4.0,11.0
23.203195810317993,,,451.0,1228.0,1140.0,7.0,5.0,8.0
23.223469018936157,,,446.0,1260.0,1124.0,7.0,5.0,8.0
23.24409770965576,,,474.0,1153.0,1109.0,5.0,5.0,8.0
23.264594316482544,,,439.0,1064.0,1191.0,4.0,4.0,6.0
23.284977674484253,,,372.0,1041.0,1274.0,4.0,4.0,4.0
23.305379152297974,,,413.0,1004.0,1292.0,5.0,4.0,3.0
23.326087474822998,,,458.0,957.0,1269.0,5.0,4.0,3.0
23.34646487236023,,,494.0,937.0,1243.0,5.0,2.0,3.0
23.366859912872314,,,602.0,932.0,1073.0,6.0,1.0,1.0
23.38739013671875,,,675.0,888.0,1036.0,5.0,1.0,0.0
23.407917737960815,,,685.0,817.0,1075.0,5.0,0.0,0.0
23.42846989631653,,,618.0,770.0,1100.0,4.0,-1.0,0.0
23.4490008354187,,,601.0,755.0,1051.0,4.0,-2.0,0.0
23.469402551651,,,330.0,709.0,1080.0,2.0,-2.0,1.0
23.48984932899475,,,148.0,803.0,1068.0,1.0,-2.0,1.0
23.510351419448853,,,70.0,923.0,980.0,1.0,0.0,1.0
23.530842065811157,,,16.0,882.0,940.0,0.0,3.0,0.0
23.55110788345337,,,-345.0,931.0,989.0,-2.0,4.0,-2.0
23.571656703948975,,,-915.0,1208.0,1095.0,-1.0,9.0,-5.0
23.592262506484985,,,-1272.0,1749.0,1504.0,5.0,18.0,2.0
23.61288094520569,,,-1061.0,1726.0,1762.0,7.0,18.0,9.0
23.63331365585327,,,-1023.0,1620.0,1923.0,5.0,14.0,15.0
23.653722763061523,,,-1658.0,2002.0,1454.0,0.0,23.0,23.0
23.67423152923584,,,-1306.0,1978.0,1749.0,0.0,35.0,28.0
23.69471001625061,,,-839.0,1943.0,2396.0,1.0,39.0,34.0
23.71516704559326,,,-310.0,2401.0,2403.0,11.0,40.0,51.0
23.735745429992676,,,489.0,2187.0,1882.0,15.0,40.0,56.0
23.75642728805542,,,2179.0,1962.0,841.0,21.0,40.0,42.0
23.77679944038391,,,2826.0,2062.0,384.0,19.0,38.0,31.0
23.79705262184143,,,3364.0,1946.0,270.0,10.0,38.0,18.0
23.817609786987305,,,2990.0,2878.0,633.0,-8.0,34.0,-11.0
23.838181734085083,,,1827.0,3469.0,1028.0,-9.0,35.0,2.0
23.858707427978516,,,679.0,3373.0,1243.0,-6.0,37.0,25.0
23.878982067108154,,,-610.0,2279.0,957.0,-4.0,45.0,46.0
23.899574279785156,,,-1074.0,2518.0,420.0,-5.0,51.0,43.0
23.92002296447754,,,-1230.0,3251.0,139.0,-8.0,53.0,43.0
23.940516471862793,,,-1379.0,3989.0,198.0,-14.0,49.0,48.0
23.96091389656067,,,-1853.0,4227.0,323.0,-18.0,48.0,59.0
23.981561183929443,,,-2875.0,2968.0,341.0,-21.0,52.0,95.0
24.001941680908203,,,-2610.0,1825.0,544.0,-20.0,60.0,104.0
24.022470951080322,,,-1646.0,1137.0,1097.0,-21.0,62.0,100.0
24.04292583465576,,,-1865.0,751.0,1948.0,-13.0,51.0,108.0
24.063403844833374,,,-1994.0,282.0,1815.0,0.0,46.0,122.0
24.08362579345703,,,-1116.0,-859.0,1779.0,10.0,43.0,129.0
24.10419225692749,,,-251.0,-3948.0,4834.0,6.0,49.0,88.0
24.12074327468872,,,-2469.0,-4474.0,6472.0,19.0,53.0,66.0
24.141310691833496,,,-4332.0,-4458.0,7376.0,41.0,73.0,75.0
24.161696672439575,,,-4080.0,-4114.0,8310.0,72.0,85.0,101.0
24.181929349899292,,,-3919.0,-3910.0,6650.0,85.0,90.0,104.0
24.202587604522705,,,-3730.0,-3969.0,4867.0,96.0,92.0,110.0
24.223138570785522,,,-2730.0,-3175.0,2404.0,121.0,90.0,116.0
24.243566036224365,,,-2228.0,-2253.0,1774.0,131.0,85.0,124.0
24.264158487319946,,,-739.0,-426.0,-370.0,136.0,60.0,168.0
24.284623384475708,,,606.0,-99.0,-2143.0,135.0,48.0,189.0
24.304826974868774,,,2398.0,283.0,-4293.0,128.0,42.0,199.0
24.325542211532593,,,5255.0,1461.0,-8062.0,95.0,38.0,170.0
24.345935821533203,,,5336.0,1296.0,-8322.0,85.0,40.0,149.0
24.366644859313965,,,4846.0,583.0,-7920.0,83.0,52.0,136.0
24.387062072753906,,,3447.0,-197.0,-6228.0,72.0,76.0,118.0
24.407519817352295,,,2804.0,168.0,-4792.0,75.0,90.0,110.0
24.427807807922363,,,1686.0,1209.0,-3211.0,80.0,104.0,100.0
24.448370933532715,,,-2734.0,3237.0,747.0,60.0,111.0,58.0
24.468924522399902,,,-5255.0,3779.0,3670.0,53.0,101.0,41.0
24.489463329315186,,,-8504.0,2515.0,7737.0,54.0,82.0,39.0
24.50971794128418,,,-8825.0,2872.0,8778.0,51.0,80.0,53.0
24.530526876449585,,,-8638.0,4105.0,9325.0,44.0,85.0,57.0
24.554704189300537,,,-9693.0,2949.0,7387.0,22.0,75.0,47.0
24.575401306152344,,,-9720.0,1879.0,6019.0,16.0,65.0,49.0
24.595672130584717,,,-8663.0,841.0,3340.0,1.0,52.0,35.0
24.61633801460266,,,-7701.0,341.0,2207.0,-5.0,53.0,39.0
24.636841535568237,,,-6534.0,-135.0,1097.0,-11.0,49.0,47.0
24.657207489013672,,,-4539.0,-1004.0,-1671.0,-14.0,39.0,58.0
24.67742896080017,,,-3861.0,-942.0,-3055.0,-10.0,33.0,60.0
24.698023080825806,,,-3329.0,-645.0,-4512.0,-3.0,31.0,58.0
24.718647956848145,,,-2589.0,125.0,-6801.0,7.0,39.0,52.0
24.7391300201416,,,-2110.0,491.0,-7263.0,9.0,43.0,47.0
24.759528636932373,,,-1597.0,916.0,-7264.0,10.0,48.0,43.0
24.77996063232422,,,-1261.0,1963.0,-5805.0,8.0,56.0,33.0
24.80052900314331,,,-1156.0,2392.0,-4223.0,4.0,63.0,26.0
24.821200847625732,,,-1009.0,2836.0,-1766.0,-5.0,71.0,16.0
24.83717107772827,,,-550.0,1389.0,3195.0,-10.0,55.0,5.0
24.857959032058716,,,-188.0,16.0,3959.0,0.0,54.0,9.0
24.878395318984985,,,-84.0,-430.0,5389.0,10.0,57.0,-9.0
24.898821115493774,,,-192.0,-685.0,5861.0,12.0,57.0,-21.0
24.919440507888794,,,-314.0,-1061.0,6083.0,16.0,60.0,-14.0
24.939685344696045,,,-625.0,-124.0,6891.0,24.0,67.0,26.0
24.96029758453369,,,-972.0,351.0,6800.0,25.0,63.0,39.0
24.980744123458862,,,-1566.0,456.0,6069.0,31.0,61.0,36.0
25.00119137763977,,,-3990.0,287.0,4528.0,44.0,53.0,2.0
25.021727800369263,,,-5538.0,-100.0,4081.0,44.0,46.0,-17.0
25.042072296142578,,,-6611.0,-1048.0,3483.0,42.0,39.0,-33.0
25.06259536743164,,,-6930.0,-3342.0,1779.0,40.0,30.0,-35.0
25.083130598068237,,,-6757.0,-3739.0,1239.0,35.0,26.0,-28.0
25.103484392166138,,,-6508.0,-3885.0,1084.0,29.0,23.0,-24.0
25.12397599220276,,,-6120.0,-4298.0,1126.0,21.0,22.0,-22.0
25.14461588859558,,,-5800.0,-4821.0,1353.0,13.0,24.0,-22.0
25.16502094268799,,,-5189.0,-5082.0,2665.0,2.0,17.0,-15.0
25.18543553352356,,,-4586.0,-5406.0,3283.0,2.0,14.0,-8.0
25.206227779388428,,,-3876.0,-5910.0,3414.0,3.0,13.0,5.0
25.226698875427246,,,-3033.0,-5815.0,2562.0,9.0,19.0,40.0
25.24699378013611,,,-3092.0,-4967.0,1845.0,10.0,19.0,52.0
25.26770043373108,,,-3245.0,-4029.0,1046.0,5.0,17.0,57.0
25.288071393966675,,,-3193.0,-3256.0,-47.0,-5.0,9.0,54.0
25.308590173721313,,,-2974.0,-3463.0,-206.0,-3.0,8.0,56.0
25.329035997390747,,,-2920.0,-3493.0,-249.0,2.0,9.0,63.0
25.3494873046875,,,-2951.0,-3119.0,-193.0,7.0,6.0,65.0
25.36996340751648,,,-2865.0,-3120.0,-263.0,10.0,6.0,58.0
25.390456676483154,,,-3143.0,-2974.0,-34.0,16.0,10.0,50.0
25.410887956619263,,,-3413.0,-2790.0,422.0,18.0,10.0,47.0
25.43130898475647,,,-3490.0,-2712.0,857.0,20.0,8.0,46.0
25.451814651489258,,,-3614.0,-2798.0,1280.0,20.0,2.0,37.0
25.472508430480957,,,-3713.0,-2758.0,1436.0,18.0,-1.0,30.0
25.49297022819519,,,-3662.0,-2692.0,1653.0,17.0,-2.0,22.0
25.513380527496338,,,-3227.0,-2705.0,1896.0,12.0,-7.0,12.0
25.533796548843384,,,-2898.0,-2747.0,1795.0,9.0,-11.0,12.0
25.55419111251831,,,-2539.0,-2744.0,1644.0,8.0,-12.0,15.0
25.574778079986572,,,-2198.0,-2262.0,1435.0,5.0,-12.0,15.0
25.595158100128174,,,-2141.0,-2060.0,1408.0,4.0,-11.0,7.0
25.61566424369812,,,-1699.0,-2331.0,1267.0,6.0,-11.0,3.0
25.636049509048462,,,-1647.0,-2371.0,1175.0,6.0,-11.0,8.0
25.65674138069153,,,-1723.0,-2162.0,1067.0,3.0,-11.0,8.0
25.67701768875122,,,-1506.0,-1892.0,1162.0,-2.0,-13.0,2.0
25.69748616218567,,,-1018.0,-1885.0,1261.0,-1.0,-12.0,3.0
25.717992305755615,,,-767.0,-1723.0,1374.0,-1.0,-12.0,5.0
25.738414764404297,,,-930.0,-1593.0,1152.0,0.0,-12.0,-2.0
25.7589271068573,,,-929.0,-1858.0,812.0,1.0,-11.0,-5.0
25.779553413391113,,,-824.0,-2088.0,546.0,2.0,-10.0,-4.0
25.79997444152832,,,-623.0,-2280.0,576.0,4.0,-4.0,10.0
25.820300579071045,,,-1049.0,-2207.0,848.0,5.0,1.0,15.0
25.84055185317993,,,-1411.0,-2076.0,1197.0,6.0,3.0,15.0
25.861193656921387,,,-377.0,-2856.0,1716.0,8.0,9.0,20.0
25.881580591201782,,,-529.0,-3841.0,2547.0,12.0,8.0,24.0
25.902294635772705,,,-2021.0,-4898.0,4213.0,12.0,-6.0,24.0
25.922709703445435,,,-1958.0,-5047.0,4441.0,10.0,-12.0,26.0
25.943336725234985,,,-1622.0,-5069.0,4495.0,7.0,-17.0,38.0
25.959791898727417,,,-1154.0,-5233.0,5328.0,-10.0,-26.0,70.0
25.980438709259033,,,-1093.0,-5308.0,6310.0,-18.0,-33.0,85.0
26.0007586479187,,,-1062.0,-5133.0,6878.0,-21.0,-38.0,91.0
26.021233320236206,,,-1994.0,-3570.0,6950.0,-49.0,-29.0,62.0
26.041707515716553,,,-1192.0,-2742.0,6820.0,-56.0,-14.0,46.0
26.062090158462524,,,393.0,-2367.0,6492.0,-55.0,1.0,53.0
26.08258867263794,,,2264.0,-2429.0,4030.0,-49.0,32.0,77.0
26.10300302505493,,,2076.0,-2119.0,2729.0,-44.0,47.0,81.0
26.123683214187622,,,1555.0,-905.0,1126.0,-39.0,52.0,69.0
26.14402937889099,,,1636.0,-155.0,441.0,-38.0,48.0,53.0
26.164573192596436,,,1866.0,868.0,183.0,-39.0,47.0,37.0
26.18496298789978,,,2199.0,3492.0,1306.0,-40.0,38.0,16.0
26.205352783203125,,,2470.0,4926.0,2882.0,-24.0,39.0,2.0
26.22591209411621,,,2428.0,5409.0,4158.0,-6.0,41.0,-17.0
26.246307373046875,,,2170.0,4541.0,4757.0,-6.0,45.0,-23.0
26.266886711120605,,,2123.0,4363.0,4855.0,-8.0,43.0,-15.0
26.287399291992188,,,1866.0,4193.0,4678.0,-6.0,44.0,-10.0
26.308043003082275,,,568.0,3438.0,4005.0,5.0,52.0,-10.0
26.328612327575684,,,2.0,2920.0,3672.0,10.0,58.0,-21.0
26.34891986846924,,,-252.0,2175.0,3247.0,13.0,62.0,-35.0
26.369266986846924,,,-312.0,10.0,1687.0,14.0,57.0,-51.0
26.38969588279724,,,-385.0,-1012.0,588.0,11.0,48.0,-55.0
26.410175800323486,,,-121.0,-2871.0,-2618.0,8.0,39.0,-44.0
26.430598497390747,,,-242.0,-3746.0,-4224.0,8.0,41.0,-27.0
26.451090335845947,,,-864.0,-4039.0,-5018.0,6.0,41.0,-5.0
26.47163486480713,,,-1915.0,-2977.0,-4490.0,-8.0,23.0,16.0
26.491934061050415,,,-1762.0,-2534.0,-4191.0,-18.0,10.0,13.0
26.51262331008911,,,-1415.0,-2480.0,-4038.0,-29.0,-2.0,15.0
26.533188581466675,,,-1390.0,-2538.0,-2751.0,-42.0,-27.0,29.0
26.553603649139404,,,-1462.0,-1630.0,-643.0,-44.0,-31.0,39.0
26.574122667312622,,,-1222.0,12.0,2948.0,-48.0,-30.0,50.0
26.594302892684937,,,337.0,1362.0,7463.0,-39.0,-28.0,39.0
26.614854335784912,,,402.0,1169.0,8002.0,-36.0,-13.0,19.0
26.635331392288208,,,-81.0,1085.0,8432.0,-42.0,-6.0,-60.0
26.655794858932495,,,243.0,436.0,7065.0,-39.0,-10.0,-96.0
26.676284551620483,,,1261.0,-381.0,5221.0,-31.0,-19.0,-110.0
26.696781396865845,,,3497.0,-1380.0,1726.0,-19.0,-19.0,-58.0
26.717545986175537,,,3432.0,-2044.0,232.0,-14.0,3.0,-44.0
26.738008499145508,,,2566.0,-2482.0,-916.0,2.0,24.0,-43.0
26.758408069610596,,,500.0,-2757.0,-2010.0,31.0,39.0,-69.0
26.778920650482178,,,-267.0,-2645.0,-2264.0,39.0,38.0,-87.0
26.79954195022583,,,-814.0,-2552.0,-2557.0,48.0,36.0,-93.0
26.81990694999695,,,-1820.0,-2068.0,-3612.0,81.0,27.0,-80.0
26.8405020236969,,,-2267.0,-1374.0,-4339.0,90.0,23.0,-83.0
26.86086082458496,,,-2425.0,-414.0,-4914.0,87.0,20.0,-104.0
26.88145089149475,,,-2304.0,1820.0,-4624.0,46.0,-3.0,-174.0
26.901775598526,,,-1336.0,2301.0,-4033.0,23.0,-12.0,-184.0
26.922354698181152,,,1383.0,2557.0,-569.0,16.0,-2.0,-130.0
26.942789316177368,,,2128.0,3648.0,1878.0,8.0,0.0,-113.0
26.963297843933105,,,2586.0,4725.0,4002.0,-16.0,-13.0,-115.0
26.983763217926025,,,3776.0,3105.0,6482.0,-53.0,-38.0,-105.0
27.004165410995483,,,3611.0,1517.0,7220.0,-39.0,-30.0,-89.0
27.02446222305298,,,2677.0,714.0,6940.0,-26.0,-27.0,-69.0
27.04101848602295,,,796.0,1802.0,4578.0,-26.0,-40.0,-50.0
27.065526962280273,,,310.0,2791.0,3260.0,-31.0,-47.0,-49.0
27.08582329750061,,,416.0,5268.0,1268.0,-33.0,-48.0,-47.0
27.106284141540527,,,962.0,6312.0,841.0,-41.0,-47.0,-59.0
27.12685203552246,,,1753.0,6649.0,984.0,-48.0,-47.0,-79.0
27.147230863571167,,,3412.0,5414.0,2024.0,-53.0,-54.0,-107.0
27.167803525924683,,,3890.0,4648.0,2707.0,-50.0,-57.0,-108.0
27.18808364868164,,,4175.0,4027.0,3274.0,-44.0,-58.0,-102.0
27.208642721176147,,,3999.0,2839.0,3493.0,-24.0,-64.0,-106.0
27.229108810424805,,,3230.0,2330.0,3018.0,-20.0,-74.0,-120.0
27.2495539188385,,,1614.0,427.0,1772.0,-20.0,-87.0,-118.0
27.269909143447876,,,813.0,-1558.0,697.0,-6.0,-80.0,-99.0
27.290471076965332,,,-376.0,-3690.0,-477.0,9.0,-71.0,-81.0
27.310980558395386,,,-2935.0,-4484.0,148.0,20.0,-50.0,-17.0
27.33149528503418,,,-3713.0,-2730.0,2527.0,33.0,-28.0,3.0
27.352171659469604,,,-4776.0,-790.0,4324.0,40.0,-29.0,-25.0
27.372579336166382,,,-4799.0,-631.0,6473.0,2.0,-51.0,-16.0
27.392956972122192,,,-3989.0,-610.0,6418.0,-7.0,-43.0,23.0
27.4134521484375,,,-3750.0,-327.0,5392.0,-12.0,-27.0,40.0
27.433995723724365,,,-3860.0,402.0,3110.0,-2.0,-9.0,63.0
27.454501628875732,,,-3596.0,1161.0,2115.0,-1.0,-10.0,63.0
27.474918603897095,,,-3424.0,1767.0,1032.0,-1.0,-9.0,62.0
27.495503902435303,,,-3864.0,2588.0,-183.0,-9.0,-10.0,73.0
27.51607871055603,,,-4148.0,2705.0,-410.0,-10.0,-18.0,75.0
27.536486864089966,,,-4166.0,2183.0,-1239.0,-11.0,-31.0,81.0
27.557099103927612,,,-4033.0,1989.0,-1459.0,-13.0,-38.0,85.0
27.57744598388672,,,-3757.0,1990.0,-1478.0,-18.0,-48.0,86.0
27.598105907440186,,,-2789.0,2018.0,-2311.0,-26.0,-60.0,79.0
27.618327856063843,,,-2267.0,2390.0,-2885.0,-29.0,-60.0,69.0
27.638821840286255,,,-1689.0,3050.0,-2981.0,-32.0,-62.0,50.0
27.659308910369873,,,341.0,4172.0,-1397.0,-44.0,-55.0,10.0
27.679805517196655,,,2132.0,4178.0,311.0,-66.0,-41.0,-10.0
27.70023775100708,,,3999.0,3284.0,2343.0,-90.0,-26.0,-33.0
27.721017122268677,,,5081.0,-526.0,4297.0,-84.0,-11.0,-66.0
27.741461992263794,,,4940.0,-1481.0,4392.0,-67.0,-4.0,-81.0
27.762038230895996,,,4506.0,-1542.0,4577.0,-63.0,2.0,-132.0
27.77834439277649,,,3745.0,-1519.0,4124.0,-71.0,7.0,-151.0
27.798920392990112,,,2786.0,-1424.0,3399.0,-77.0,12.0,-163.0
27.81928825378418,,,1319.0,-865.0,1148.0,-85.0,14.0,-161.0
27.839807748794556,,,968.0,-650.0,-335.0,-90.0,20.0,-149.0
27.860262870788574,,,730.0,-304.0,-1350.0,-93.0,26.0,-139.0
27.880820751190186,,,699.0,621.0,-2153.0,-98.0,19.0,-138.0
27.901283025741577,,,702.0,996.0,-2080.0,-102.0,14.0,-131.0
27.921630144119263,,,676.0,1486.0,-1488.0,-107.0,3.0,-117.0
27.941901445388794,,,652.0,2140.0,-505.0,-113.0,-11.0,-77.0
27.96240735054016,,,624.0,2132.0,-324.0,-112.0,-12.0,-65.0
27.982853651046753,,,823.0,2084.0,51.0,-111.0,-14.0,-60.0
28.003231048583984,,,1978.0,2177.0,2188.0,-118.0,-27.0,-51.0
28.02399730682373,,,2174.0,2141.0,2686.0,-118.0,-30.0,-48.0
28.044668436050415,,,2460.0,1697.0,2294.0,-118.0,-19.0,-66.0
28.065065145492554,,,3095.0,1486.0,2090.0,-119.0,-13.0,-88.0
28.08538818359375,,,3652.0,1057.0,2301.0,-125.0,-10.0,-111.0
28.105889797210693,,,2914.0,165.0,3998.0,-121.0,-17.0,-135.0
28.12640380859375,,,2215.0,-156.0,4874.0,-112.0,-18.0,-136.0
28.146811485290527,,,1547.0,-141.0,5095.0,-103.0,-10.0,-130.0
28.167358875274658,,,1201.0,1464.0,4467.0,-81.0,-3.0,-107.0
28.1877224445343,,,1596.0,2356.0,4083.0,-74.0,-5.0,-98.0
28.20852017402649,,,2162.0,2799.0,3739.0,-69.0,-9.0,-95.0
28.2291898727417,,,2955.0,2157.0,2822.0,-68.0,-19.0,-107.0
28.249404430389404,,,2777.0,1587.0,2169.0,-68.0,-26.0,-124.0
28.269832134246826,,,1533.0,656.0,711.0,-63.0,-46.0,-141.0
28.29445743560791,,,843.0,139.0,106.0,-60.0,-51.0,-132.0
28.314898252487183,,,143.0,-505.0,-104.0,-55.0,-49.0,-116.0
28.33534002304077,,,-559.0,-1159.0,-316.0,-50.0,-41.0,-112.0
28.355854272842407,,,-1071.0,-1142.0,-267.0,-39.0,-34.0,-106.0
28.37632942199707,,,-587.0,-499.0,383.0,-29.0,-25.0,-84.0
28.396932125091553,,,-589.0,-403.0,906.0,-28.0,-14.0,-62.0
28.417253255844116,,,-511.0,-400.0,2013.0,-23.0,-12.0,-45.0
28.437758922576904,,,-346.0,-422.0,2632.0,-20.0,-9.0,-9.0
28.458112716674805,,,-1227.0,-535.0,1633.0,-22.0,4.0,10.0
28.478783130645752,,,-2694.0,32.0,1389.0,-14.0,23.0,26.0
28.499140977859497,,,-1893.0,1470.0,6526.0,-11.0,-2.0,37.0
28.51968812942505,,,-892.0,865.0,7005.0,-8.0,2.0,41.0
28.54026222229004,,,-326.0,737.0,6414.0,-4.0,4.0,23.0
28.560760259628296,,,-353.0,1539.0,3662.0,16.0,14.0,-30.0
28.581029176712036,,,-41.0,1828.0,3001.0,16.0,20.0,-22.0
28.601730346679688,,,1354.0,1909.0,2560.0,6.0,21.0,14.0
28.622188806533813,,,1789.0,1758.0,2254.0,4.0,28.0,39.0
28.642773866653442,,,1765.0,1607.0,1897.0,7.0,39.0,53.0
28.662975788116455,,,931.0,1578.0,719.0,16.0,54.0,45.0
28.683815479278564,,,823.0,1995.0,444.0,15.0,54.0,20.0
28.70409369468689,,,1108.0,2424.0,440.0,11.0,47.0,-3.0
28.724529504776,,,1689.0,2777.0,163.0,11.0,44.0,-18.0
28.744957208633423,,,1774.0,2810.0,76.0,16.0,44.0,-26.0
28.76562786102295,,,1887.0,2773.0,127.0,19.0,39.0,-30.0
28.785764694213867,,,2395.0,2190.0,268.0,20.0,27.0,-19.0
28.806341409683228,,,2683.0,1510.0,227.0,22.0,28.0,-6.0
28.826729774475098,,,2472.0,-151.0,1518.0,32.0,36.0,-1.0
28.847495079040527,,,2251.0,-1529.0,3188.0,30.0,46.0,-16.0
28.867878675460815,,,2505.0,-3170.0,5270.0,14.0,50.0,-25.0
28.88822841644287,,,2836.0,-3647.0,6105.0,-2.0,52.0,-48.0
28.90893054008484,,,2846.0,-2234.0,5397.0,2.0,52.0,-59.0
28.929336547851562,,,3057.0,-1088.0,5194.0,3.0,43.0,-66.0
28.949812173843384,,,3332.0,-64.0,4812.0,-5.0,27.0,-47.0
28.966200351715088,,,3310.0,134.0,4004.0,-4.0,27.0,-35.0
28.986473560333252,,,3264.0,13.0,3094.0,-5.0,28.0,-29.0
29.00713872909546,,,3331.0,-353.0,1371.0,-19.0,20.0,-42.0
29.02735948562622,,,3145.0,-197.0,583.0,-27.0,14.0,-53.0
29.04796862602234,,,2812.0,180.0,-77.0,-31.0,10.0,-60.0
29.068321704864502,,,2575.0,1086.0,-1243.0,-32.0,7.0,-47.0
29.088960647583008,,,2818.0,1287.0,-1779.0,-31.0,6.0,-42.0
29.109148740768433,,,3239.0,1003.0,-2240.0,-25.0,0.0,-50.0
29.1297709941864,,,3195.0,639.0,-2045.0,-25.0,-2.0,-57.0
29.150155544281006,,,2923.0,277.0,-1446.0,-26.0,-4.0,-60.0
29.170499801635742,,,2030.0,-537.0,624.0,-29.0,-6.0,-61.0
29.19110107421875,,,1724.0,-855.0,1707.0,-33.0,-7.0,-60.0
29.211639881134033,,,1502.0,-974.0,2696.0,-37.0,-7.0,-58.0
29.232398509979248,,,1180.0,-602.0,4271.0,-35.0,-8.0,-51.0
29.252978324890137,,,1083.0,-321.0,4504.0,-31.0,-5.0,-50.0
29.273395776748657,,,1161.0,-112.0,4400.0,-27.0,1.0,-47.0
29.293931245803833,,,1900.0,257.0,3283.0,-19.0,3.0,-46.0
29.314232349395752,,,2147.0,425.0,2440.0,-14.0,2.0,-47.0
29.334819078445435,,,2285.0,475.0,920.0,-8.0,1.0,-41.0
29.355090141296387,,,2346.0,360.0,376.0,-7.0,-1.0,-39.0
29.37574028968811,,,2368.0,194.0,-5.0,-7.0,-4.0,-38.0
29.3961341381073,,,2378.0,-36.0,-79.0,-6.0,-10.0,-40.0
29.41674518585205,,,2352.0,-148.0,147.0,-6.0,-12.0,-39.0
29.436980962753296,,,2172.0,-253.0,427.0,-4.0,-12.0,-36.0
29.457492113113403,,,1716.0,-415.0,915.0,-1.0,-9.0,-23.0
29.477983713150024,,,1590.0,-617.0,1241.0,1.0,-7.0,-19.0
29.498491764068604,,,1544.0,-824.0,1716.0,3.0,-6.0,-16.0
29.518964767456055,,,1704.0,-995.0,2505.0,7.0,-7.0,-15.0
29.539473056793213,,,1800.0,-1012.0,2805.0,10.0,-6.0,-16.0
29.559882164001465,,,1899.0,-1066.0,2905.0,11.0,-6.0,-19.0
29.58452010154724,,,2031.0,-1155.0,2455.0,12.0,-5.0,-19.0
29.605030298233032,,,2041.0,-1077.0,1990.0,11.0,-2.0,-19.0
29.625481367111206,,,2285.0,-855.0,1704.0,13.0,0.0,-27.0
29.646026134490967,,,2196.0,-718.0,1824.0,14.0,-2.0,-27.0
29.66660213470459,,,1993.0,-370.0,1862.0,16.0,-2.0,-23.0
29.682930946350098,,,1736.0,-127.0,1832.0,18.0,3.0,-16.0
29.70347785949707,,,1824.0,-246.0,1819.0,18.0,5.0,-17.0
29.72379970550537,,,2058.0,-411.0,1798.0,17.0,4.0,-22.0
29.744422435760498,,,2048.0,-282.0,1743.0,17.0,3.0,-20.0
29.764824151992798,,,2002.0,-137.0,1623.0,18.0,2.0,-17.0
29.785284996032715,,,1992.0,-78.0,1171.0,17.0,4.0,-10.0
29.80579972267151,,,2035.0,-53.0,1147.0,17.0,6.0,-8.0
29.82604479789734,,,2099.0,-81.0,1250.0,16.0,7.0,-8.0
29.84665870666504,,,2196.0,-307.0,1414.0,13.0,8.0,-8.0
29.866960525512695,,,2221.0,-365.0,1432.0,11.0,8.0,-6.0
29.887407064437866,,,2287.0,-369.0,1517.0,10.0,9.0,-5.0
29.90786647796631,,,2423.0,-338.0,1656.0,9.0,9.0,-5.0
29.92844867706299,,,2584.0,-324.0,1757.0,8.0,9.0,-5.0
29.94892454147339,,,2593.0,-302.0,1908.0,7.0,6.0,-4.0
29.969178915023804,,,2509.0,-211.0,1845.0,9.0,6.0,-4.0
29.989577054977417,,,2479.0,-125.0,1740.0,10.0,7.0,-3.0
30.010166883468628,,,2496.0,-229.0,1694.0,9.0,9.0,1.0
30.03054904937744,,,2503.0,-353.0,1720.0,8.0,10.0,1.0
30.051076650619507,,,2551.0,-463.0,1787.0,6.0,10.0,1.0
30.071662187576294,,,2738.0,-417.0,2104.0,4.0,4.0,3.0
30.09221076965332,,,2818.0,-398.0,2177.0,4.0,2.0,3.0
30.112657070159912,,,2817.0,-529.0,2244.0,1.0,1.0,2.0
30.133201122283936,,,2626.0,-701.0,2202.0,-4.0,-3.0,-3.0
30.153630018234253,,,2537.0,-703.0,2141.0,-6.0,-5.0,-5.0
30.17445683479309,,,2424.0,-711.0,2200.0,-8.0,-7.0,-4.0
30.194846153259277,,,1986.0,-528.0,2168.0,-9.0,-9.0,-3.0
30.215439319610596,,,1760.0,-467.0,2059.0,-9.0,-7.0,-7.0
30.235811948776245,,,1259.0,-476.0,1974.0,-12.0,-4.0,-14.0
30.256425380706787,,,1066.0,-451.0,1950.0,-13.0,-3.0,-15.0
30.276752710342407,,,959.0,-371.0,1863.0,-14.0,-1.0,-14.0
30.297067403793335,,,955.0,-184.0,1631.0,-14.0,1.0,-10.0
30.31747579574585,,,1069.0,-80.0,1494.0,-13.0,2.0,-8.0
30.337960481643677,,,1225.0,-62.0,1377.0,-12.0,2.0,-6.0
30.35841989517212,,,1346.0,-412.0,1349.0,-10.0,3.0,-7.0
30.378875970840454,,,1295.0,-602.0,1441.0,-10.0,2.0,-9.0
30.399401903152466,,,1177.0,-716.0,1508.0,-9.0,2.0,-10.0
30.41991376876831,,,833.0,-713.0,1558.0,-9.0,2.0,-8.0
30.440312147140503,,,677.0,-668.0,1600.0,-9.0,2.0,-8.0
30.46083927154541,,,448.0,-722.0,1737.0,-8.0,0.0,-8.0
30.481237411499023,,,379.0,-765.0,1793.0,-7.0,-1.0,-9.0
30.501725435256958,,,317.0,-696.0,1812.0,-6.0,-1.0,-8.0
30.522159814834595,,,229.0,-697.0,1888.0,-7.0,-2.0,-2.0
30.54267430305481,,,271.0,-841.0,1957.0,-9.0,-3.0,-1.0
30.563148498535156,,,372.0,-1004.0,2045.0,-11.0,-5.0,-2.0
30.583636045455933,,,447.0,-1139.0,2134.0,-11.0,-8.0,-7.0
30.60442328453064,,,488.0,-1103.0,2025.0,-9.0,-8.0,-10.0
30.62491798400879,,,561.0,-1090.0,1921.0,-8.0,-8.0,-12.0
30.645692110061646,,,508.0,-1167.0,1859.0,-5.0,-7.0,-11.0
30.66597867012024,,,490.0,-1194.0,1871.0,-5.0,-7.0,-8.0
30.686492204666138,,,476.0,-1205.0,1877.0,-5.0,-8.0,-6.0
30.706918716430664,,,511.0,-1182.0,1882.0,-3.0,-8.0,-11.0
30.72736358642578,,,612.0,-1006.0,1930.0,-2.0,-8.0,-13.0
30.74790334701538,,,614.0,-686.0,1876.0,0.0,-7.0,-8.0
30.764308214187622,,,540.0,-672.0,1835.0,0.0,-5.0,-5.0
30.784746408462524,,,506.0,-699.0,1857.0,0.0,-6.0,-3.0
30.805450916290283,,,554.0,-618.0,1812.0,-1.0,-8.0,0.0
30.825644969940186,,,605.0,-589.0,1774.0,-2.0,-8.0,1.0
30.846094846725464,,,635.0,-562.0,1752.0,-3.0,-9.0,2.0
30.866607189178467,,,486.0,-605.0,1722.0,-2.0,-9.0,3.0
30.887032508850098,,,435.0,-656.0,1748.0,-3.0,-10.0,3.0
30.907681226730347,,,413.0,-700.0,1761.0,-3.0,-10.0,4.0
30.928122758865356,,,401.0,-786.0,1855.0,-6.0,-10.0,4.0
30.948549509048462,,,380.0,-821.0,1927.0,-8.0,-11.0,4.0
30.968921661376953,,,252.0,-756.0,1843.0,-9.0,-12.0,3.0
,,,,,,,,
