time,/ext_usb_camera/image/compressed,robogame/imu_state,robogame/imu_state.linear_acc.x,robogame/imu_state.linear_acc.y,robogame/imu_state.linear_acc.z,robogame/imu_state.gyro.z,robogame/imu_state.gyro.x,robogame/imu_state.gyro.y
0.0,,,-2689.0,5131.0,-8350.0,43.0,126.0,-52.0
0.02055978775024414,,,-3857.0,5066.0,-5599.0,53.0,140.0,-62.0
0.040961503982543945,,,-3791.0,3840.0,1754.0,70.0,144.0,-64.0
0.061719655990600586,,,-2997.0,2608.0,4633.0,68.0,141.0,-45.0
0.0819549560546875,,,-2556.0,1307.0,6602.0,63.0,134.0,-27.0
0.10261058807373047,,,-1466.0,-188.0,8180.0,53.0,113.0,-8.0
0.12296915054321289,,,-313.0,-444.0,8516.0,47.0,104.0,9.0
0.14336800575256348,,,862.0,-799.0,8947.0,46.0,94.0,41.0
0.16389918327331543,,,3060.0,-2153.0,8720.0,60.0,65.0,81.0
0.18426132202148438,,,4306.0,-2948.0,7430.0,61.0,44.0,92.0
0.20467853546142578,,,6456.0,-5118.0,3034.0,41.0,-10.0,83.0
0.22525548934936523,,,7131.0,-6424.0,96.0,19.0,-20.0,70.0
0.24631214141845703,,,7682.0,-7705.0,-2277.0,-6.0,-19.0,57.0
0.2666900157928467,,,5275.0,-8222.0,-3455.0,-38.0,-39.0,-14.0
0.29118967056274414,,,1570.0,-7505.0,-2121.0,-43.0,-43.0,-47.0
0.31154918670654297,,,-2486.0,-6105.0,767.0,-44.0,-40.0,-77.0
0.3321259021759033,,,-5685.0,-3271.0,3256.0,-29.0,-54.0,-110.0
0.3525855541229248,,,-7879.0,-1010.0,4228.0,-13.0,-45.0,-120.0
0.3730192184448242,,,-9532.0,1235.0,4375.0,4.0,-30.0,-89.0
0.393568754196167,,,-9117.0,1614.0,3072.0,8.0,-23.0,-71.0
0.4139378070831299,,,-8089.0,1738.0,1144.0,3.0,-14.0,-63.0
0.43455052375793457,,,-6765.0,2136.0,-688.0,-6.0,-4.0,-67.0
0.45487165451049805,,,-4882.0,2944.0,-1792.0,-16.0,4.0,-77.0
0.4754633903503418,,,-2394.0,3912.0,-2186.0,-19.0,5.0,-75.0
0.4959399700164795,,,310.0,4716.0,-2613.0,-15.0,4.0,-60.0
0.5165255069732666,,,2597.0,4967.0,-3351.0,-10.0,7.0,-28.0
0.5367963314056396,,,4535.0,3290.0,-4192.0,-11.0,3.0,36.0
0.5573697090148926,,,4517.0,1596.0,-3546.0,-8.0,7.0,39.0
0.5779757499694824,,,4289.0,-511.0,-2024.0,-6.0,5.0,25.0
0.5985004901885986,,,2425.0,-3205.0,914.0,-17.0,-23.0,-26.0
0.6187963485717773,,,1035.0,-2714.0,1203.0,-26.0,-34.0,-56.0
0.6393826007843018,,,-164.0,-1529.0,1189.0,-29.0,-41.0,-74.0
0.6597700119018555,,,-1589.0,814.0,191.0,-27.0,-54.0,-49.0
0.6803534030914307,,,-2717.0,1180.0,326.0,-25.0,-51.0,-21.0
0.7007358074188232,,,-4652.0,922.0,1604.0,-29.0,-51.0,9.0
0.7212164402008057,,,-7760.0,305.0,4458.0,-16.0,-51.0,38.0
0.7417316436767578,,,-8330.0,175.0,4833.0,-5.0,-39.0,23.0
0.7622368335723877,,,-8022.0,1480.0,4581.0,0.0,-30.0,-32.0
0.7825133800506592,,,-7579.0,2575.0,3744.0,3.0,-28.0,-37.0
0.8029541969299316,,,-7506.0,3138.0,3154.0,9.0,-20.0,-17.0
0.8234984874725342,,,-8180.0,2131.0,2639.0,17.0,8.0,18.0
0.843980073928833,,,-7923.0,1736.0,2325.0,14.0,22.0,16.0
0.8643631935119629,,,-7232.0,1994.0,2133.0,14.0,35.0,13.0
0.8848724365234375,,,-5489.0,3203.0,951.0,20.0,47.0,20.0
0.9054090976715088,,,-4784.0,4198.0,-106.0,19.0,62.0,25.0
0.9257752895355225,,,-4118.0,4841.0,-390.0,12.0,79.0,34.0
0.9462802410125732,,,-2067.0,4436.0,564.0,8.0,103.0,68.0
0.9666938781738281,,,-891.0,3471.0,1319.0,15.0,116.0,84.0
0.9871346950531006,,,1800.0,2116.0,2450.0,15.0,106.0,58.0
1.007615327835083,,,2544.0,2119.0,2887.0,5.0,99.0,45.0
1.0284464359283447,,,3072.0,2142.0,3369.0,0.0,89.0,52.0
1.0447652339935303,,,3587.0,2981.0,2670.0,12.0,73.0,78.0
1.0652589797973633,,,3648.0,3185.0,1749.0,22.0,69.0,90.0
1.085724115371704,,,3673.0,2868.0,773.0,26.0,63.0,97.0
1.1061270236968994,,,3284.0,1876.0,-1350.0,16.0,49.0,103.0
1.1265645027160645,,,2899.0,1668.0,-2169.0,9.0,45.0,109.0
1.147104024887085,,,2622.0,1568.0,-2591.0,2.0,39.0,115.0
1.1674230098724365,,,2041.0,1251.0,-3023.0,-3.0,33.0,128.0
1.1880292892456055,,,2073.0,1011.0,-2824.0,-1.0,29.0,124.0
1.2084035873413086,,,2072.0,893.0,-2488.0,0.0,26.0,120.0
1.2290229797363281,,,2412.0,824.0,-1712.0,-5.0,26.0,112.0
1.2494831085205078,,,2522.0,754.0,-1305.0,-9.0,30.0,107.0
1.2699737548828125,,,2547.0,358.0,448.0,-15.0,35.0,88.0
1.290339469909668,,,2415.0,583.0,1267.0,-12.0,34.0,73.0
1.3109304904937744,,,2076.0,1304.0,1229.0,-4.0,34.0,56.0
1.3312649726867676,,,1119.0,2543.0,13.0,10.0,27.0,36.0
1.3517210483551025,,,622.0,2302.0,-189.0,7.0,19.0,35.0
1.3722355365753174,,,-224.0,1425.0,47.0,2.0,17.0,41.0
1.3926811218261719,,,-1904.0,-495.0,1750.0,11.0,29.0,51.0
1.4132344722747803,,,-2286.0,-879.0,2787.0,17.0,33.0,51.0
1.4336163997650146,,,-2637.0,-822.0,3384.0,16.0,34.0,50.0
1.4540300369262695,,,-3731.0,-139.0,3567.0,9.0,34.0,61.0
1.4745898246765137,,,-4052.0,-42.0,3600.0,17.0,37.0,77.0
1.4949951171875,,,-3159.0,-537.0,2896.0,46.0,45.0,101.0
1.5154213905334473,,,-2379.0,-837.0,2028.0,50.0,43.0,95.0
1.5358619689941406,,,-1856.0,-979.0,1055.0,47.0,39.0,84.0
1.5564076900482178,,,-2075.0,-1234.0,-588.0,45.0,36.0,83.0
1.5767748355865479,,,-2269.0,-1471.0,-1038.0,50.0,40.0,96.0
1.5974235534667969,,,-2224.0,-1650.0,-1323.0,55.0,44.0,107.0
1.6178867816925049,,,-1707.0,-1514.0,-1670.0,55.0,50.0,112.0
1.638413667678833,,,-1517.0,-1281.0,-1724.0,51.0,51.0,110.0
1.6588051319122314,,,-1389.0,-1031.0,-1597.0,48.0,50.0,110.0
1.6793427467346191,,,-790.0,49.0,-701.0,49.0,54.0,109.0
1.699894666671753,,,-241.0,917.0,185.0,48.0,58.0,103.0
1.7201919555664062,,,263.0,1905.0,1518.0,42.0,65.0,94.0
1.7407035827636719,,,-104.0,4338.0,4357.0,30.0,72.0,79.0
1.7611992359161377,,,-914.0,5480.0,4860.0,32.0,72.0,82.0
1.7816877365112305,,,-1625.0,7232.0,4829.0,29.0,64.0,71.0
1.8022289276123047,,,-1593.0,7788.0,4635.0,20.0,58.0,50.0
1.8227698802947998,,,-1866.0,7908.0,4134.0,12.0,53.0,32.0
1.843198537826538,,,-3043.0,7337.0,2801.0,8.0,49.0,26.0
1.8636503219604492,,,-3441.0,7178.0,2172.0,8.0,44.0,34.0
1.8839683532714844,,,-3560.0,7137.0,1529.0,6.0,36.0,41.0
1.9044239521026611,,,-3044.0,6814.0,4.0,-3.0,21.0,41.0
1.9248723983764648,,,-2662.0,6449.0,-663.0,-10.0,17.0,32.0
1.9454667568206787,,,-2435.0,5978.0,-1094.0,-16.0,14.0,22.0
1.965869665145874,,,-2407.0,5104.0,-1408.0,-22.0,6.0,15.0
1.9864463806152344,,,-2253.0,4778.0,-1445.0,-25.0,2.0,12.0
2.006793260574341,,,-1900.0,3847.0,-1036.0,-37.0,-2.0,-6.0
2.0273759365081787,,,-1963.0,3095.0,-644.0,-40.0,-4.0,-17.0
2.0478951930999756,,,-2227.0,2206.0,-304.0,-40.0,-7.0,-25.0
2.0683674812316895,,,-3005.0,467.0,-164.0,-30.0,-10.0,-17.0
2.088660717010498,,,-3032.0,-184.0,-118.0,-21.0,-10.0,-7.0
2.1093175411224365,,,-2669.0,-620.0,224.0,-16.0,-9.0,0.0
2.125622510910034,,,-1513.0,-1285.0,1455.0,-17.0,-7.0,6.0
2.1461949348449707,,,-1175.0,-1624.0,1905.0,-18.0,-3.0,4.0
2.1665401458740234,,,-1074.0,-1978.0,2134.0,-16.0,2.0,5.0
2.187141180038452,,,-1473.0,-2475.0,1816.0,-8.0,11.0,14.0
2.207458019256592,,,-1784.0,-2581.0,1259.0,-1.0,15.0,21.0
2.2281227111816406,,,-1887.0,-2521.0,699.0,6.0,20.0,30.0
2.248444080352783,,,-1442.0,-1948.0,-52.0,16.0,27.0,45.0
2.269073486328125,,,-1122.0,-1589.0,-377.0,16.0,29.0,47.0
2.289884328842163,,,-840.0,-1033.0,-809.0,13.0,29.0,42.0
2.3103318214416504,,,-947.0,-950.0,-961.0,12.0,27.0,39.0
2.3304309844970703,,,-1154.0,-933.0,-1036.0,12.0,27.0,39.0
2.3510406017303467,,,-1527.0,-606.0,-268.0,8.0,32.0,38.0
2.371354103088379,,,-1801.0,-299.0,715.0,7.0,34.0,36.0
2.3920116424560547,,,-2288.0,-56.0,1816.0,7.0,37.0,33.0
2.412407398223877,,,-3989.0,321.0,3058.0,9.0,45.0,32.0
2.4329545497894287,,,-4975.0,494.0,3104.0,11.0,45.0,38.0
2.4537758827209473,,,-5679.0,581.0,2969.0,17.0,44.0,46.0
2.474242687225342,,,-5696.0,1218.0,2810.0,25.0,41.0,38.0
2.4946799278259277,,,-5642.0,1681.0,2499.0,22.0,39.0,22.0
2.515244245529175,,,-6361.0,1542.0,1628.0,15.0,32.0,18.0
2.5355756282806396,,,-6574.0,1257.0,1348.0,13.0,28.0,33.0
2.5559659004211426,,,-6462.0,1054.0,1204.0,11.0,24.0,50.0
2.576571464538574,,,-5567.0,953.0,795.0,7.0,21.0,63.0
2.597041606903076,,,-5207.0,1125.0,544.0,6.0,21.0,60.0
2.6174204349517822,,,-5087.0,1368.0,305.0,5.0,19.0,55.0
2.638139009475708,,,-5105.0,1739.0,-69.0,4.0,15.0,49.0
2.6583685874938965,,,-4940.0,1960.0,-152.0,1.0,13.0,48.0
2.682894468307495,,,-4225.0,2033.0,-224.0,-9.0,12.0,33.0
2.7032904624938965,,,-3939.0,1755.0,-160.0,-12.0,12.0,22.0
2.7238609790802,,,-3761.0,1490.0,61.0,-14.0,10.0,13.0
2.744194984436035,,,-3360.0,1048.0,794.0,-17.0,7.0,0.0
2.7647576332092285,,,-3123.0,685.0,1096.0,-17.0,6.0,-5.0
2.7851245403289795,,,-2957.0,236.0,1215.0,-15.0,6.0,-11.0
2.8057119846343994,,,-2789.0,-441.0,1252.0,-8.0,6.0,-10.0
2.8261520862579346,,,-2653.0,-593.0,1176.0,-6.0,3.0,-4.0
2.8425803184509277,,,-2374.0,-666.0,955.0,-4.0,-1.0,1.0
2.863027572631836,,,-1416.0,-549.0,275.0,-2.0,-3.0,0.0
2.8833446502685547,,,-921.0,-479.0,47.0,-1.0,-3.0,-4.0
2.9038774967193604,,,-185.0,-566.0,-143.0,-5.0,-1.0,-12.0
2.924419403076172,,,-51.0,-823.0,-170.0,-7.0,2.0,-12.0
2.944795846939087,,,-46.0,-1121.0,-132.0,-8.0,3.0,-8.0
2.9654080867767334,,,-317.0,-1746.0,-221.0,-6.0,4.0,9.0
2.9859704971313477,,,-529.0,-1929.0,-356.0,-4.0,4.0,17.0
3.006549835205078,,,-681.0,-1918.0,-454.0,-1.0,5.0,23.0
3.026942491531372,,,-867.0,-1471.0,-343.0,4.0,10.0,26.0
3.047412872314453,,,-1001.0,-1135.0,-87.0,6.0,14.0,23.0
3.0679593086242676,,,-1176.0,-726.0,368.0,6.0,17.0,17.0
3.088430166244507,,,-1940.0,25.0,1957.0,-1.0,20.0,1.0
3.1088788509368896,,,-2544.0,279.0,2640.0,-6.0,23.0,-8.0
3.1293141841888428,,,-4658.0,-394.0,1920.0,0.0,24.0,-18.0
3.1498863697052,,,-5399.0,-760.0,1402.0,10.0,23.0,-12.0
3.1706318855285645,,,-5547.0,-602.0,1216.0,17.0,17.0,-8.0
3.1910338401794434,,,-4453.0,341.0,1224.0,11.0,3.0,-18.0
3.211435317993164,,,-3696.0,509.0,1213.0,6.0,2.0,-31.0
3.2318906784057617,,,-3142.0,341.0,1257.0,2.0,4.0,-41.0
3.2523233890533447,,,-2807.0,-1214.0,994.0,-3.0,15.0,-26.0
3.2728912830352783,,,-3419.0,-1747.0,1083.0,0.0,16.0,-3.0
3.293443202972412,,,-4241.0,-1645.0,1372.0,3.0,6.0,20.0
3.3140387535095215,,,-4042.0,-570.0,1362.0,5.0,-13.0,32.0
3.3343141078948975,,,-3223.0,-121.0,1104.0,4.0,-13.0,19.0
3.3547141551971436,,,-2493.0,177.0,935.0,3.0,-14.0,4.0
3.3752071857452393,,,-1638.0,-70.0,597.0,2.0,-18.0,-14.0
3.3956069946289062,,,-1426.0,-432.0,410.0,3.0,-17.0,-13.0
3.4161901473999023,,,-1068.0,-720.0,219.0,4.0,-11.0,-4.0
3.4367470741271973,,,-846.0,-671.0,225.0,2.0,-9.0,-1.0
3.4573512077331543,,,-635.0,-614.0,236.0,0.0,-7.0,0.0
3.4776155948638916,,,-415.0,-561.0,204.0,-2.0,-2.0,-2.0
3.4982311725616455,,,-404.0,-521.0,168.0,-2.0,1.0,-1.0
3.5187721252441406,,,-441.0,-417.0,149.0,-3.0,3.0,0.0
3.5391688346862793,,,-554.0,-239.0,210.0,-5.0,5.0,-2.0
3.5597057342529297,,,-623.0,-239.0,256.0,-6.0,6.0,-3.0
3.5800633430480957,,,-707.0,-216.0,272.0,-7.0,7.0,-4.0
3.600511312484741,,,-860.0,-87.0,300.0,-8.0,9.0,-5.0
3.6209542751312256,,,-924.0,-79.0,338.0,-9.0,10.0,-5.0
3.64158296585083,,,-1105.0,-22.0,421.0,-10.0,9.0,-7.0
3.6619813442230225,,,-1210.0,38.0,449.0,-11.0,9.0,-7.0
3.6825859546661377,,,-1311.0,46.0,562.0,-12.0,8.0,-8.0
3.7029292583465576,,,-1542.0,-236.0,762.0,-12.0,8.0,-8.0
3.7236528396606445,,,-1672.0,-409.0,790.0,-10.0,8.0,-6.0
3.743945360183716,,,-1747.0,-463.0,845.0,-8.0,9.0,-3.0
3.764420509338379,,,-1719.0,-356.0,1107.0,-2.0,5.0,-3.0
3.7848119735717773,,,-1676.0,-300.0,1236.0,0.0,3.0,-4.0
3.8054873943328857,,,-1651.0,-190.0,1334.0,1.0,1.0,-6.0
3.8259851932525635,,,-1474.0,17.0,1278.0,2.0,-4.0,-7.0
3.846482515335083,,,-1326.0,26.0,1207.0,2.0,-6.0,-7.0
3.8666722774505615,,,-1198.0,-10.0,1130.0,1.0,-8.0,-8.0
3.8872687816619873,,,-1030.0,-85.0,941.0,1.0,-10.0,-6.0
3.907672643661499,,,-955.0,-63.0,839.0,1.0,-10.0,-5.0
3.9238040447235107,,,-833.0,-32.0,748.0,0.0,-11.0,-7.0
3.9446487426757812,,,-820.0,-71.0,721.0,-1.0,-11.0,-8.0
3.965111494064331,,,-820.0,-100.0,697.0,-1.0,-11.0,-8.0
3.9855775833129883,,,-785.0,-96.0,679.0,-1.0,-10.0,-7.0
4.006226539611816,,,-738.0,-78.0,692.0,-1.0,-10.0,-7.0
4.026606321334839,,,-711.0,-78.0,691.0,-2.0,-9.0,-8.0
4.0471351146698,,,-680.0,-66.0,677.0,-2.0,-10.0,-7.0
4.067495822906494,,,-644.0,-80.0,654.0,-3.0,-9.0,-6.0
4.087972402572632,,,-609.0,-139.0,627.0,-3.0,-9.0,-6.0
4.108490705490112,,,-609.0,-277.0,602.0,-2.0,-6.0,-4.0
4.129006385803223,,,-603.0,-254.0,616.0,-2.0,-5.0,-3.0
4.149397373199463,,,-663.0,-216.0,690.0,-3.0,-4.0,-1.0
4.170012712478638,,,-714.0,-250.0,718.0,-4.0,-4.0,0.0
4.1905975341796875,,,-739.0,-251.0,710.0,-4.0,-4.0,1.0
4.210964202880859,,,-746.0,-167.0,672.0,-4.0,-2.0,0.0
4.231354236602783,,,-723.0,-167.0,680.0,-4.0,-2.0,-1.0
4.251964569091797,,,-730.0,-203.0,718.0,-4.0,-2.0,-2.0
4.272374153137207,,,-781.0,-260.0,735.0,-2.0,-1.0,0.0
4.292781352996826,,,-781.0,-246.0,738.0,-2.0,-1.0,1.0
4.313300132751465,,,-754.0,-240.0,725.0,-2.0,0.0,1.0
4.333714008331299,,,-664.0,-194.0,709.0,-1.0,0.0,2.0
4.354340076446533,,,-621.0,-151.0,708.0,-1.0,0.0,1.0
4.374850034713745,,,-597.0,-114.0,728.0,-1.0,1.0,1.0
4.395256519317627,,,-599.0,-109.0,833.0,-1.0,1.0,2.0
4.415723085403442,,,-603.0,-115.0,864.0,-2.0,0.0,2.0
4.435973167419434,,,-628.0,-98.0,816.0,-1.0,0.0,3.0
4.456521511077881,,,-621.0,-87.0,763.0,-1.0,1.0,3.0
4.476972818374634,,,-605.0,-60.0,751.0,-1.0,1.0,2.0
4.497247934341431,,,-623.0,-27.0,755.0,-1.0,1.0,2.0
4.517799139022827,,,-600.0,-5.0,753.0,-1.0,1.0,2.0
4.538400173187256,,,-552.0,52.0,764.0,-1.0,1.0,2.0
4.558717250823975,,,-482.0,132.0,779.0,-2.0,1.0,0.0
4.57927680015564,,,-489.0,115.0,788.0,-2.0,1.0,0.0
4.599812746047974,,,-504.0,106.0,787.0,-2.0,1.0,0.0
4.620133399963379,,,-506.0,94.0,739.0,-4.0,1.0,0.0
4.640656232833862,,,-484.0,113.0,723.0,-4.0,0.0,0.0
4.661240577697754,,,-490.0,172.0,687.0,-5.0,-1.0,-3.0
4.681782007217407,,,-503.0,163.0,690.0,-6.0,-1.0,-4.0
4.702312231063843,,,-523.0,91.0,685.0,-6.0,-1.0,-5.0
4.722782850265503,,,-559.0,-64.0,701.0,-5.0,-1.0,-7.0
4.743292331695557,,,-562.0,-96.0,710.0,-5.0,-1.0,-6.0
4.763928174972534,,,-539.0,-117.0,711.0,-5.0,0.0,-6.0
4.784225225448608,,,-510.0,-213.0,768.0,-5.0,1.0,-5.0
4.804911136627197,,,-505.0,-250.0,772.0,-4.0,1.0,-4.0
4.825230360031128,,,-535.0,-227.0,777.0,-5.0,2.0,-3.0
4.845857858657837,,,-602.0,-238.0,755.0,-6.0,2.0,-3.0
4.866229772567749,,,-613.0,-280.0,819.0,-5.0,3.0,-3.0
4.88670802116394,,,-616.0,-312.0,882.0,-3.0,2.0,-2.0
4.906988859176636,,,-611.0,-313.0,844.0,-1.0,2.0,-2.0
4.927635908126831,,,-593.0,-256.0,772.0,-1.0,3.0,-2.0
4.94805645942688,,,-487.0,-38.0,785.0,0.0,3.0,-3.0
4.968639135360718,,,-444.0,30.0,817.0,1.0,3.0,-3.0
4.988969802856445,,,-387.0,97.0,802.0,1.0,2.0,-3.0
5.005576133728027,,,-251.0,222.0,739.0,1.0,2.0,-4.0
5.026011228561401,,,-209.0,235.0,748.0,0.0,1.0,-5.0
5.046424150466919,,,-191.0,197.0,751.0,0.0,1.0,-6.0
5.066873550415039,,,-204.0,97.0,731.0,-1.0,0.0,-5.0
5.087304592132568,,,-192.0,52.0,700.0,-1.0,0.0,-4.0
5.107707262039185,,,-181.0,8.0,689.0,-2.0,0.0,-4.0
5.128407716751099,,,-216.0,-74.0,696.0,-2.0,0.0,-2.0
5.148820638656616,,,-253.0,-102.0,736.0,-2.0,0.0,-1.0
5.1693737506866455,,,-316.0,-37.0,731.0,-2.0,0.0,0.0
5.193776845932007,,,-322.0,-13.0,707.0,-1.0,0.0,-1.0
5.214334964752197,,,-316.0,-25.0,667.0,-1.0,0.0,-1.0
5.234633922576904,,,-313.0,-83.0,602.0,-1.0,0.0,-2.0
5.255218982696533,,,-322.0,-71.0,580.0,-1.0,0.0,-2.0
5.275595426559448,,,-311.0,-48.0,566.0,0.0,0.0,-2.0
5.296184539794922,,,-239.0,0.0,574.0,-1.0,-1.0,-2.0
5.316546440124512,,,-245.0,-11.0,578.0,-1.0,-1.0,-2.0
5.337139129638672,,,-217.0,-12.0,584.0,-1.0,-1.0,-2.0
5.357429027557373,,,-162.0,24.0,624.0,-2.0,-1.0,-2.0
5.378105640411377,,,-121.0,32.0,669.0,-3.0,-1.0,-3.0
5.398553848266602,,,-128.0,-142.0,687.0,-6.0,-2.0,-1.0
5.418999195098877,,,-151.0,-208.0,680.0,-5.0,-2.0,0.0
5.439392566680908,,,-148.0,-194.0,720.0,-4.0,-2.0,1.0
5.459925413131714,,,-152.0,-156.0,747.0,-4.0,-2.0,2.0
5.480372667312622,,,-207.0,-221.0,676.0,-4.0,-2.0,1.0
5.500914812088013,,,-237.0,-274.0,615.0,-3.0,-1.0,2.0
5.5213539600372314,,,-233.0,-243.0,672.0,0.0,0.0,4.0
5.541751861572266,,,-224.0,-162.0,703.0,1.0,1.0,4.0
5.562592029571533,,,-176.0,-11.0,798.0,1.0,0.0,3.0
5.582997798919678,,,-177.0,-20.0,810.0,2.0,0.0,3.0
5.6033875942230225,,,-204.0,-79.0,829.0,2.0,0.0,3.0
5.6239333152771,,,-263.0,-117.0,849.0,3.0,0.0,6.0
5.644466161727905,,,-246.0,-112.0,821.0,3.0,1.0,7.0
5.664909839630127,,,-225.0,-98.0,801.0,3.0,1.0,7.0
5.685348749160767,,,-226.0,-67.0,762.0,4.0,1.0,7.0
5.705853223800659,,,-237.0,-12.0,705.0,4.0,1.0,7.0
5.7262725830078125,,,-241.0,206.0,631.0,4.0,1.0,4.0
5.7470903396606445,,,-244.0,232.0,585.0,4.0,1.0,3.0
5.767480373382568,,,-252.0,237.0,558.0,5.0,1.0,3.0
5.787595510482788,,,-181.0,253.0,839.0,5.0,1.0,6.0
5.808281898498535,,,-35.0,357.0,1163.0,5.0,0.0,7.0
5.82879114151001,,,201.0,498.0,1538.0,4.0,-1.0,9.0
5.849200010299683,,,539.0,529.0,1963.0,7.0,-4.0,16.0
5.869562149047852,,,496.0,436.0,1817.0,14.0,-3.0,23.0
5.890209436416626,,,449.0,417.0,1495.0,22.0,-2.0,30.0
5.910639047622681,,,1084.0,1087.0,981.0,25.0,-1.0,32.0
5.930960655212402,,,1614.0,815.0,986.0,15.0,-9.0,20.0
5.951503276824951,,,901.0,-2027.0,127.0,10.0,-22.0,9.0
5.971923828125,,,331.0,-2659.0,-604.0,18.0,-21.0,29.0
5.992486000061035,,,191.0,-2482.0,-1145.0,24.0,-24.0,55.0
6.012889862060547,,,1326.0,-1256.0,-1636.0,31.0,-28.0,92.0
6.033428430557251,,,2115.0,-416.0,-1699.0,29.0,-25.0,92.0
6.053905248641968,,,2590.0,421.0,-1621.0,23.0,-21.0,84.0
6.074342727661133,,,1854.0,988.0,-1452.0,15.0,-16.0,70.0
6.094783782958984,,,1153.0,989.0,-1322.0,20.0,-11.0,77.0
6.115350008010864,,,674.0,1173.0,-1035.0,27.0,-5.0,88.0
6.1357667446136475,,,464.0,2989.0,814.0,22.0,3.0,61.0
6.156244277954102,,,24.0,3562.0,1564.0,12.0,-3.0,23.0
6.176826000213623,,,-1884.0,1999.0,1471.0,2.0,3.0,-37.0
6.197047472000122,,,-2357.0,929.0,1610.0,2.0,7.0,-47.0
6.217694044113159,,,-2269.0,-114.0,2235.0,8.0,14.0,-44.0
6.238224983215332,,,-1698.0,-608.0,4802.0,36.0,6.0,-3.0
6.258507013320923,,,-1395.0,105.0,5379.0,49.0,3.0,10.0
6.2790117263793945,,,-947.0,643.0,5602.0,55.0,3.0,10.0
6.299416780471802,,,-319.0,453.0,6473.0,60.0,8.0,14.0
6.3197596073150635,,,-171.0,643.0,6775.0,64.0,15.0,39.0
6.340417861938477,,,-80.0,1234.0,6500.0,63.0,26.0,61.0
6.360931634902954,,,-733.0,2697.0,4492.0,44.0,46.0,46.0
6.381344795227051,,,-1005.0,2729.0,3523.0,36.0,46.0,30.0
6.401846408843994,,,-1182.0,2143.0,2643.0,31.0,47.0,28.0
6.422375440597534,,,-1875.0,299.0,657.0,36.0,46.0,42.0
6.442842960357666,,,-2535.0,-541.0,-555.0,35.0,46.0,42.0
6.46365213394165,,,-2592.0,-1061.0,-2055.0,23.0,40.0,48.0
6.484073877334595,,,-1039.0,-101.0,-1778.0,10.0,35.0,39.0
6.504703760147095,,,1342.0,1134.0,-441.0,-13.0,34.0,15.0
6.524938583374023,,,3877.0,-292.0,3234.0,-25.0,26.0,-51.0
6.545557260513306,,,3173.0,-2350.0,3516.0,-9.0,37.0,-49.0
6.561895132064819,,,2191.0,-3682.0,3808.0,2.0,43.0,-22.0
6.582463502883911,,,1235.0,-4006.0,3397.0,-1.0,33.0,14.0
6.60286545753479,,,1176.0,-3796.0,2528.0,-5.0,34.0,11.0
6.623399019241333,,,1177.0,-3569.0,1694.0,-10.0,34.0,4.0
6.643794536590576,,,1462.0,-3647.0,280.0,-27.0,30.0,7.0
6.664362668991089,,,1683.0,-3994.0,-454.0,-29.0,33.0,25.0
6.684826850891113,,,1479.0,-4401.0,-2267.0,-23.0,39.0,65.0
6.705320596694946,,,1160.0,-4193.0,-3159.0,-20.0,41.0,84.0
6.725740432739258,,,889.0,-3718.0,-4020.0,-19.0,41.0,101.0
6.746272325515747,,,246.0,-2041.0,-5589.0,-15.0,44.0,123.0
6.76672625541687,,,-370.0,-1049.0,-6282.0,-6.0,49.0,125.0
6.787259340286255,,,-1312.0,-239.0,-6906.0,4.0,54.0,114.0
6.8076331615448,,,-2957.0,60.0,-7045.0,0.0,53.0,58.0
6.828119277954102,,,-3278.0,-598.0,-5896.0,-10.0,51.0,28.0
6.848568677902222,,,-3407.0,-1585.0,-3383.0,-19.0,54.0,2.0
6.869131803512573,,,-1907.0,-4491.0,5665.0,-46.0,59.0,-27.0
6.889584302902222,,,-496.0,-7220.0,8684.0,-54.0,50.0,-18.0
6.910199165344238,,,604.0,-9575.0,8250.0,-35.0,69.0,12.0
6.930516719818115,,,2185.0,-10820.0,8055.0,-10.0,74.0,92.0
6.95088529586792,,,2401.0,-9233.0,7496.0,-4.0,68.0,118.0
6.971418857574463,,,1205.0,-5332.0,5572.0,5.0,66.0,139.0
6.991649389266968,,,-99.0,-3996.0,4464.0,7.0,64.0,129.0
7.012268543243408,,,-1572.0,-3353.0,3194.0,4.0,63.0,116.0
7.032873153686523,,,-3547.0,-4127.0,-445.0,2.0,55.0,105.0
7.053298473358154,,,-3676.0,-4988.0,-2621.0,10.0,47.0,108.0
7.0737621784210205,,,-3620.0,-5333.0,-4599.0,19.0,36.0,107.0
7.094310998916626,,,-3870.0,-3846.0,-7012.0,15.0,20.0,71.0
7.114964246749878,,,-3746.0,-2776.0,-7367.0,7.0,20.0,55.0
7.135315656661987,,,-3266.0,-2084.0,-7118.0,-1.0,22.0,45.0
7.15592885017395,,,-1925.0,-2216.0,-5083.0,-3.0,18.0,43.0
7.176538467407227,,,-1613.0,-2731.0,-3572.0,3.0,17.0,53.0
7.196916341781616,,,-1150.0,-3561.0,-411.0,10.0,18.0,67.0
7.21735405921936,,,-699.0,-3752.0,1186.0,9.0,20.0,66.0
7.237894773483276,,,-443.0,-3821.0,2758.0,8.0,21.0,65.0
7.258378028869629,,,-732.0,-3384.0,5408.0,0.0,24.0,46.0
7.278740644454956,,,-789.0,-3155.0,6329.0,-6.0,27.0,23.0
7.299326181411743,,,-447.0,-3135.0,6622.0,-12.0,29.0,-2.0
7.319696426391602,,,1261.0,-3688.0,4999.0,-14.0,25.0,-32.0
7.339928865432739,,,2024.0,-3859.0,3621.0,-8.0,21.0,-29.0
7.360529899597168,,,2143.0,-3817.0,2532.0,-4.0,17.0,-20.0
7.381018161773682,,,751.0,-3296.0,1467.0,-8.0,6.0,-8.0
7.401434898376465,,,-31.0,-2975.0,1116.0,-14.0,1.0,-8.0
7.421742916107178,,,-549.0,-2697.0,797.0,-21.0,-5.0,-13.0
7.442171573638916,,,-704.0,-2338.0,297.0,-30.0,-14.0,-22.0
7.462764739990234,,,-489.0,-2261.0,41.0,-32.0,-16.0,-21.0
7.483181476593018,,,-144.0,-2248.0,-475.0,-33.0,-17.0,-12.0
7.503648996353149,,,-33.0,-2171.0,-556.0,-33.0,-18.0,-7.0
7.524251222610474,,,59.0,-1905.0,-273.0,-35.0,-20.0,-4.0
7.544978141784668,,,824.0,-836.0,844.0,-38.0,-30.0,0.0
7.5651655197143555,,,1534.0,-332.0,1499.0,-34.0,-33.0,2.0
7.5855841636657715,,,2274.0,-16.0,2292.0,-31.0,-35.0,3.0
7.605914354324341,,,3761.0,359.0,3762.0,-14.0,-31.0,15.0
7.626577615737915,,,4348.0,712.0,4208.0,-3.0,-26.0,32.0
7.64292573928833,,,4804.0,1015.0,4294.0,9.0,-23.0,49.0
7.663623809814453,,,4697.0,1212.0,3217.0,36.0,-17.0,64.0
7.684107780456543,,,3919.0,1362.0,2411.0,45.0,-14.0,73.0
7.708906173706055,,,2813.0,1549.0,497.0,55.0,-5.0,89.0
7.729139804840088,,,2939.0,1658.0,-613.0,61.0,2.0,87.0
7.749727487564087,,,3279.0,1992.0,-1391.0,60.0,12.0,84.0
7.7700231075286865,,,3536.0,1945.0,-875.0,60.0,46.0,99.0
7.790645122528076,,,3463.0,796.0,-222.0,70.0,53.0,99.0
7.811023473739624,,,3999.0,-2404.0,243.0,79.0,53.0,79.0
7.831583261489868,,,4187.0,-3102.0,1146.0,74.0,50.0,77.0
7.85184383392334,,,4271.0,-3098.0,2706.0,75.0,47.0,80.0
7.8725266456604,,,4287.0,-3118.0,5112.0,86.0,51.0,78.0
7.892853498458862,,,4441.0,-3333.0,5688.0,83.0,53.0,90.0
7.913292407989502,,,4695.0,-3365.0,6113.0,81.0,53.0,108.0
7.933898448944092,,,3807.0,-3700.0,5887.0,78.0,43.0,132.0
7.954412937164307,,,2610.0,-4270.0,4968.0,75.0,36.0,133.0
7.9747045040130615,,,1182.0,-5065.0,3621.0,66.0,35.0,113.0
7.995232820510864,,,-796.0,-5832.0,724.0,36.0,34.0,36.0
8.015607357025146,,,-1204.0,-5676.0,-435.0,25.0,32.0,16.0
8.036180257797241,,,-1224.0,-5665.0,-1721.0,17.0,31.0,13.0
8.056607723236084,,,-377.0,-5811.0,-5492.0,4.0,34.0,29.0
8.077067852020264,,,-170.0,-6043.0,-7555.0,-8.0,38.0,31.0
8.097709894180298,,,-617.0,-5757.0,-10004.0,-29.0,37.0,13.0
8.118155002593994,,,-877.0,-5209.0,-9822.0,-39.0,34.0,3.0
8.138306617736816,,,-970.0,-4197.0,-8839.0,-45.0,36.0,-5.0
8.158928632736206,,,-215.0,-1109.0,-4826.0,-47.0,49.0,-34.0
8.179311037063599,,,429.0,872.0,-1408.0,-47.0,55.0,-48.0
8.199849367141724,,,1420.0,2928.0,2633.0,-42.0,59.0,-54.0
8.220422267913818,,,4666.0,4448.0,5798.0,-30.0,63.0,-32.0
8.240895509719849,,,5564.0,4017.0,5916.0,-29.0,69.0,-27.0
8.26143217086792,,,5921.0,3434.0,5934.0,-31.0,68.0,-20.0
8.281915187835693,,,6022.0,3034.0,3195.0,-20.0,73.0,27.0
8.302412509918213,,,5590.0,2660.0,950.0,-11.0,78.0,55.0
8.32272481918335,,,3531.0,1166.0,-3167.0,-10.0,72.0,75.0
8.343106985092163,,,2618.0,616.0,-4602.0,-20.0,69.0,75.0
8.359619379043579,,,2341.0,515.0,-5630.0,-27.0,64.0,78.0
8.380109071731567,,,3269.0,220.0,-5859.0,-23.0,67.0,94.0
8.40047025680542,,,3699.0,-1258.0,-4091.0,-22.0,71.0,104.0
8.421093225479126,,,4279.0,-3199.0,-601.0,-30.0,69.0,103.0
8.441482782363892,,,6996.0,-2629.0,4882.0,-33.0,69.0,36.0
8.462052345275879,,,9207.0,-1621.0,6421.0,-20.0,78.0,-6.0
8.482662677764893,,,12464.0,-1678.0,7310.0,-13.0,76.0,-49.0
8.503233194351196,,,16246.0,1375.0,6631.0,38.0,78.0,49.0
8.523614406585693,,,15333.0,2804.0,7170.0,58.0,62.0,100.0
8.544069528579712,,,12540.0,2704.0,6565.0,72.0,28.0,128.0
8.56437063217163,,,5422.0,-197.0,1815.0,81.0,35.0,136.0
8.584967136383057,,,3113.0,-2165.0,-939.0,73.0,37.0,119.0
8.605499267578125,,,2973.0,-4818.0,-5855.0,39.0,22.0,97.0
8.62619423866272,,,4206.0,-4906.0,-7599.0,21.0,12.0,62.0
8.646400690078735,,,5032.0,-3954.0,-8636.0,10.0,-2.0,24.0
8.667023181915283,,,3804.0,-1489.0,-10300.0,-7.0,-5.0,-2.0
8.687350749969482,,,2786.0,-673.0,-10704.0,-15.0,2.0,9.0
8.70793104171753,,,2033.0,-324.0,-10211.0,-21.0,11.0,33.0
8.728412389755249,,,2655.0,-3023.0,-3854.0,-46.0,33.0,50.0
8.748916625976562,,,4117.0,-3477.0,667.0,-59.0,39.0,31.0
8.769295930862427,,,5769.0,-861.0,4627.0,-45.0,33.0,-2.0
8.789803504943848,,,8442.0,4114.0,8182.0,-10.0,50.0,38.0
8.810157537460327,,,7976.0,3965.0,8299.0,-3.0,42.0,60.0
8.83082365989685,,,5517.0,2747.0,4791.0,6.0,27.0,83.0
8.851254940032959,,,4655.0,1921.0,2425.0,15.0,23.0,91.0
8.87165379524231,,,4152.0,827.0,174.0,22.0,19.0,101.0
8.891990184783936,,,3944.0,-2226.0,-2962.0,14.0,16.0,111.0
8.912618637084961,,,4329.0,-3508.0,-3268.0,-4.0,16.0,96.0
8.932979106903076,,,4750.0,-3875.0,-2953.0,-24.0,12.0,74.0
8.953563928604126,,,4854.0,-2450.0,-1676.0,-42.0,6.0,33.0
8.974105834960938,,,4602.0,-1571.0,-1281.0,-40.0,2.0,16.0
8.994933366775513,,,4230.0,-1044.0,-1197.0,-37.0,-1.0,-1.0
9.015222787857056,,,3286.0,-896.0,-890.0,-36.0,-6.0,-28.0
9.035949945449829,,,2699.0,-1183.0,-85.0,-39.0,-10.0,-36.0
9.056291818618774,,,2210.0,-1679.0,1353.0,-43.0,-20.0,-43.0
9.076924324035645,,,1169.0,-2033.0,3990.0,-46.0,-40.0,-60.0
9.097402572631836,,,781.0,-1662.0,4723.0,-45.0,-39.0,-55.0
9.117915391921997,,,-232.0,-913.0,6401.0,-40.0,-31.0,-36.0
9.138214111328125,,,-835.0,-413.0,7066.0,-40.0,-35.0,-41.0
9.158703088760376,,,-1348.0,279.0,7612.0,-35.0,-40.0,-42.0
9.179109811782837,,,-2135.0,2177.0,8313.0,-16.0,-47.0,-32.0
9.199604511260986,,,-2433.0,3161.0,8466.0,-5.0,-48.0,-22.0
9.219889402389526,,,-2767.0,3658.0,7951.0,6.0,-45.0,-7.0
9.240558862686157,,,-3477.0,3910.0,5246.0,8.0,-30.0,24.0
9.260898351669312,,,-3664.0,3934.0,3778.0,13.0,-17.0,34.0
9.281479358673096,,,-3477.0,3859.0,1973.0,22.0,-10.0,53.0
9.302007675170898,,,-2283.0,4886.0,-3781.0,35.0,9.0,59.0
9.322704792022705,,,-1747.0,6165.0,-6869.0,46.0,21.0,63.0
9.342925071716309,,,-882.0,7863.0,-7782.0,67.0,43.0,98.0
9.363543033599854,,,-1048.0,7531.0,-4591.0,78.0,54.0,118.0
9.383981227874756,,,-1512.0,6339.0,367.0,79.0,60.0,117.0
9.404458045959473,,,-1395.0,5737.0,5054.0,56.0,58.0,110.0
9.424954414367676,,,-1200.0,6104.0,4889.0,53.0,72.0,133.0
9.441328048706055,,,-962.0,5499.0,5454.0,51.0,79.0,162.0
9.461794376373291,,,-232.0,2943.0,4194.0,51.0,69.0,176.0
9.482089281082153,,,231.0,1660.0,2258.0,52.0,62.0,173.0
9.502500534057617,,,360.0,254.0,142.0,58.0,54.0,170.0
9.522971630096436,,,1611.0,-2355.0,-2843.0,75.0,40.0,178.0
9.543349266052246,,,3170.0,-3146.0,-3615.0,81.0,34.0,180.0
9.56382131576538,,,4961.0,-3119.0,-4526.0,84.0,34.0,169.0
9.584329843521118,,,6475.0,-2138.0,-5723.0,80.0,39.0,147.0
9.604843854904175,,,7245.0,-803.0,-7091.0,70.0,42.0,115.0
9.625384330749512,,,7652.0,1263.0,-9107.0,50.0,45.0,70.0
9.645846366882324,,,8017.0,1683.0,-8866.0,39.0,43.0,48.0
9.666549921035767,,,8381.0,1864.0,-7689.0,17.0,41.0,14.0
9.687031030654907,,,6235.0,1761.0,-2407.0,-45.0,52.0,-76.0
9.707315921783447,,,3300.0,2270.0,1554.0,-47.0,59.0,-101.0
9.727807760238647,,,623.0,3511.0,4621.0,-37.0,57.0,-95.0
9.748449802398682,,,-1937.0,4482.0,8190.0,-51.0,59.0,-80.0
9.768975019454956,,,-3755.0,4911.0,9572.0,-55.0,61.0,-81.0
9.789502143859863,,,-5738.0,6377.0,9177.0,-39.0,67.0,-73.0
9.809921026229858,,,-5111.0,9370.0,4287.0,1.0,58.0,-33.0
9.830644845962524,,,-5068.0,8734.0,2038.0,-8.0,34.0,0.0
9.850762128829956,,,-7666.0,5351.0,-2126.0,-9.0,37.0,83.0
9.871402502059937,,,-7026.0,3944.0,-3571.0,4.0,48.0,129.0
9.891815185546875,,,-5318.0,3300.0,-4556.0,16.0,47.0,156.0
9.912379503250122,,,-1924.0,2930.0,-3880.0,37.0,45.0,144.0
9.932703971862793,,,-485.0,3167.0,-2235.0,40.0,41.0,111.0
9.953333139419556,,,434.0,3498.0,-344.0,34.0,39.0,86.0
9.973636627197266,,,1172.0,4700.0,2912.0,39.0,42.0,98.0
9.99418330192566,,,2304.0,5658.0,3716.0,45.0,41.0,102.0
10.01464319229126,,,4227.0,6431.0,4178.0,43.0,38.0,75.0
10.035040616989136,,,4939.0,6932.0,6100.0,18.0,33.0,-19.0
10.055364608764648,,,2454.0,7869.0,7443.0,18.0,24.0,-26.0
10.076011419296265,,,302.0,9245.0,7893.0,29.0,10.0,12.0
10.096392393112183,,,-19.0,9723.0,7861.0,41.0,0.0,52.0
10.116980075836182,,,464.0,8902.0,8216.0,40.0,-13.0,60.0
10.137286901473999,,,-605.0,7603.0,8881.0,42.0,-29.0,30.0
10.157932758331299,,,-1156.0,6711.0,9067.0,49.0,-38.0,40.0
10.178730010986328,,,-1108.0,5485.0,8544.0,49.0,-39.0,49.0
10.199167490005493,,,-928.0,2700.0,6131.0,33.0,-36.0,86.0
10.223758935928345,,,-1383.0,1653.0,4124.0,28.0,-30.0,118.0
10.244146585464478,,,1263.0,1880.0,-1199.0,36.0,-21.0,146.0
10.264862537384033,,,3401.0,3495.0,-4351.0,26.0,-17.0,101.0
10.285160064697266,,,3984.0,5091.0,-6863.0,7.0,-9.0,43.0
10.305432319641113,,,2386.0,6356.0,-8262.0,-7.0,-17.0,-14.0
10.32612133026123,,,2181.0,6592.0,-8013.0,-12.0,-18.0,-19.0
10.346667766571045,,,2519.0,6541.0,-6864.0,-18.0,-16.0,-27.0
10.36707878112793,,,2384.0,4638.0,-2016.0,-42.0,-14.0,-98.0
10.387458562850952,,,612.0,3439.0,1543.0,-39.0,-20.0,-117.0
10.4079008102417,,,-1469.0,2440.0,4474.0,-28.0,-26.0,-102.0
10.424160480499268,,,-3936.0,1406.0,7862.0,-18.0,-35.0,-56.0
10.444524049758911,,,-4956.0,570.0,7798.0,-20.0,-47.0,-32.0
10.465324640274048,,,-7266.0,-2727.0,6977.0,-2.0,-25.0,49.0
10.485852718353271,,,-7278.0,-3710.0,5862.0,12.0,-19.0,103.0
10.506125688552856,,,-7253.0,-4468.0,2900.0,26.0,-14.0,144.0
10.5267333984375,,,-5371.0,-4537.0,-6606.0,40.0,15.0,171.0
10.546873807907104,,,-4549.0,-3227.0,-10444.0,38.0,43.0,165.0
10.56714391708374,,,-4455.0,-1082.0,-11457.0,40.0,65.0,129.0
10.587773084640503,,,-5203.0,831.0,-4981.0,56.0,61.0,28.0
10.608298540115356,,,-6082.0,-935.0,-140.0,62.0,73.0,7.0
10.628711938858032,,,-6311.0,-2222.0,5695.0,66.0,80.0,30.0
10.649273157119751,,,-6062.0,-2260.0,12137.0,86.0,83.0,155.0
10.669897079467773,,,-4490.0,-19.0,11843.0,75.0,85.0,167.0
10.69015884399414,,,-79.0,6740.0,8009.0,19.0,78.0,123.0
10.710656881332397,,,1509.0,8191.0,5359.0,10.0,72.0,124.0
10.731221199035645,,,1562.0,8067.0,3395.0,12.0,82.0,121.0
10.751608610153198,,,-1552.0,7104.0,-377.0,23.0,66.0,69.0
10.772095203399658,,,-2742.0,7735.0,-2848.0,16.0,56.0,35.0
10.79260802268982,,,-2982.0,7713.0,-5117.0,-8.0,49.0,19.0
10.813158512115479,,,-2096.0,3555.0,-6470.0,-44.0,47.0,1.0
10.834030628204346,,,-2322.0,673.0,-4934.0,-50.0,56.0,-3.0
10.85448694229126,,,-2773.0,-2489.0,-1108.0,-50.0,66.0,-13.0
10.874967575073242,,,-3977.0,-7833.0,6442.0,-13.0,72.0,-26.0
10.89504075050354,,,-5135.0,-7433.0,6164.0,3.0,72.0,-3.0
10.915583372116089,,,-5501.0,-6543.0,5395.0,4.0,75.0,22.0
10.936028718948364,,,-4311.0,-5624.0,3053.0,3.0,65.0,72.0
10.95642638206482,,,-3373.0,-5147.0,1198.0,9.0,71.0,102.0
10.976980447769165,,,-2537.0,-3376.0,-182.0,19.0,69.0,137.0
10.997616529464722,,,-2570.0,-2406.0,-631.0,22.0,57.0,135.0
11.017862796783447,,,-2300.0,-1876.0,-1351.0,21.0,47.0,136.0
11.038404941558838,,,-1288.0,-1687.0,-2532.0,24.0,30.0,146.0
11.058756351470947,,,-1338.0,-1804.0,-2453.0,34.0,26.0,141.0
11.079282283782959,,,-1914.0,-2047.0,-2060.0,40.0,23.0,129.0
11.099786758422852,,,-2985.0,-2440.0,434.0,29.0,19.0,119.0
11.12031078338623,,,-2925.0,-3129.0,3255.0,27.0,19.0,119.0
11.140859603881836,,,-2772.0,-4168.0,5810.0,44.0,25.0,111.0
11.161640882492065,,,-4765.0,-5060.0,7178.0,68.0,43.0,90.0
11.18198037147522,,,-5860.0,-5112.0,7897.0,71.0,37.0,88.0
11.202604532241821,,,-6454.0,-5432.0,5837.0,67.0,19.0,53.0
11.22294020652771,,,-5799.0,-5265.0,5108.0,57.0,16.0,53.0
11.24346375465393,,,-5022.0,-5012.0,4952.0,53.0,18.0,67.0
11.264069080352783,,,-4429.0,-4828.0,3790.0,62.0,18.0,91.0
11.284571647644043,,,-4384.0,-4764.0,2794.0,70.0,16.0,107.0
11.305042505264282,,,-4516.0,-4446.0,1704.0,78.0,13.0,120.0
11.325525283813477,,,-5329.0,-2750.0,-871.0,82.0,5.0,121.0
11.345813989639282,,,-5751.0,-1655.0,-2432.0,74.0,4.0,110.0
11.366418600082397,,,-6048.0,-809.0,-3669.0,56.0,6.0,87.0
11.386731624603271,,,-4994.0,-598.0,-3914.0,18.0,22.0,16.0
11.407180547714233,,,-3482.0,-1377.0,-2853.0,7.0,31.0,-17.0
11.427654266357422,,,-1750.0,-2547.0,-1284.0,8.0,31.0,-26.0
11.448176860809326,,,803.0,-4291.0,927.0,24.0,36.0,28.0
11.468699216842651,,,1275.0,-4448.0,981.0,37.0,50.0,48.0
11.489113330841064,,,191.0,-4016.0,351.0,52.0,66.0,28.0
11.505589485168457,,,-626.0,-3858.0,267.0,47.0,69.0,10.0
11.526052713394165,,,-1258.0,-3953.0,683.0,39.0,70.0,1.0
11.546466588973999,,,-2018.0,-4770.0,2092.0,31.0,67.0,26.0
11.566977739334106,,,-2296.0,-5277.0,2438.0,34.0,63.0,50.0
11.587160587310791,,,-2550.0,-5606.0,2413.0,39.0,55.0,65.0
11.607763767242432,,,-2790.0,-5521.0,2152.0,43.0,50.0,66.0
11.628244638442993,,,-3221.0,-5165.0,1986.0,42.0,46.0,55.0
11.648741483688354,,,-3713.0,-4817.0,1984.0,35.0,42.0,41.0
11.669074535369873,,,-3569.0,-4271.0,1745.0,18.0,38.0,28.0
11.689580917358398,,,-3162.0,-4204.0,1548.0,11.0,39.0,34.0
11.709868431091309,,,-2697.0,-3955.0,962.0,4.0,42.0,53.0
11.730634927749634,,,-2809.0,-3578.0,659.0,1.0,45.0,56.0
11.751034259796143,,,-3219.0,-2872.0,748.0,-4.0,50.0,52.0
11.771604299545288,,,-4084.0,-1071.0,2490.0,-24.0,44.0,7.0
11.792046308517456,,,-3486.0,-443.0,3209.0,-35.0,35.0,-31.0
11.81252646446228,,,-2322.0,-165.0,3824.0,-43.0,32.0,-64.0
11.832963466644287,,,1020.0,-724.0,4635.0,-23.0,30.0,-48.0
11.853492975234985,,,1888.0,-1261.0,4360.0,-7.0,30.0,-18.0
11.873875379562378,,,1894.0,-1691.0,3572.0,-3.0,23.0,2.0
11.894481182098389,,,1756.0,-2028.0,823.0,-16.0,10.0,-3.0
11.914886474609375,,,1958.0,-2136.0,-622.0,-18.0,8.0,-11.0
11.935347318649292,,,2185.0,-2306.0,-1838.0,-15.0,7.0,-2.0
11.956097841262817,,,1895.0,-3044.0,-3920.0,-5.0,10.0,18.0
11.976432085037231,,,1062.0,-3367.0,-4533.0,-7.0,5.0,11.0
11.99694299697876,,,284.0,-4189.0,-4861.0,-20.0,-18.0,-8.0
12.017302513122559,,,400.0,-5250.0,-4187.0,-19.0,-24.0,-4.0
12.037916898727417,,,24.0,-6496.0,-2216.0,-14.0,-27.0,14.0
12.058740139007568,,,-697.0,-8183.0,4493.0,0.0,-57.0,50.0
12.078991889953613,,,-96.0,-8134.0,6814.0,13.0,-75.0,54.0
12.099647045135498,,,710.0,-7650.0,8083.0,25.0,-83.0,56.0
12.120028257369995,,,1255.0,-7181.0,9179.0,21.0,-110.0,66.0
12.140490531921387,,,1669.0,-6673.0,9626.0,19.0,-119.0,77.0
12.161057472229004,,,1904.0,-5534.0,10668.0,17.0,-126.0,85.0
12.181589126586914,,,1751.0,-2329.0,11969.0,4.0,-132.0,133.0
12.201964616775513,,,903.0,-1371.0,11171.0,-6.0,-129.0,145.0
12.222594022750854,,,-2067.0,-2023.0,8396.0,-27.0,-105.0,102.0
12.243046998977661,,,-3813.0,-1931.0,7099.0,-42.0,-92.0,63.0
12.263413906097412,,,-4593.0,-1209.0,5664.0,-56.0,-84.0,37.0
12.283817052841187,,,-3871.0,165.0,1608.0,-83.0,-62.0,13.0
12.304182052612305,,,-3648.0,214.0,-700.0,-92.0,-54.0,9.0
12.324647665023804,,,-3650.0,245.0,-2938.0,-95.0,-47.0,5.0
12.3452889919281,,,-3292.0,1452.0,-4383.0,-102.0,-13.0,-1.0
12.365778684616089,,,-1934.0,3206.0,-2618.0,-110.0,0.0,-21.0
12.38609004020691,,,815.0,5941.0,-128.0,-103.0,4.0,-47.0
12.40661907196045,,,6713.0,7043.0,2410.0,-38.0,25.0,-74.0
12.426855325698853,,,7332.0,6122.0,2902.0,-27.0,41.0,-68.0
12.447526693344116,,,7048.0,5933.0,3680.0,-17.0,50.0,-57.0
12.46815013885498,,,6171.0,5719.0,4323.0,-4.0,54.0,-58.0
12.488728761672974,,,5165.0,4927.0,4528.0,7.0,60.0,-72.0
12.509255409240723,,,3150.0,3142.0,3981.0,4.0,64.0,-98.0
12.529723644256592,,,2549.0,2392.0,2915.0,-2.0,63.0,-92.0
12.550032138824463,,,2263.0,1372.0,1333.0,-1.0,68.0,-75.0
12.570611000061035,,,947.0,-1332.0,-1564.0,2.0,63.0,-52.0
12.586848735809326,,,-5.0,-2488.0,-2984.0,1.0,52.0,-47.0
12.607418775558472,,,-851.0,-3178.0,-4150.0,-3.0,46.0,-48.0
12.627807140350342,,,-1714.0,-3204.0,-5299.0,-3.0,38.0,-61.0
12.648391723632812,,,-1774.0,-2717.0,-5184.0,-3.0,38.0,-63.0
12.668802738189697,,,-1625.0,-2139.0,-4716.0,-4.0,34.0,-64.0
12.689165592193604,,,-1100.0,-1568.0,-3594.0,-8.0,27.0,-62.0
12.70959186553955,,,-1179.0,-1465.0,-2683.0,-12.0,22.0,-60.0
12.734142303466797,,,-1455.0,-1128.0,-1187.0,-18.0,18.0,-52.0
12.754684448242188,,,-1540.0,-277.0,1238.0,-25.0,16.0,-44.0
12.775094747543335,,,-983.0,978.0,4393.0,-29.0,20.0,-37.0
12.795382261276245,,,-271.0,54.0,6412.0,-16.0,30.0,-14.0
12.816073179244995,,,-836.0,-819.0,5682.0,-16.0,36.0,-7.0
12.83687424659729,,,-1434.0,-765.0,5032.0,-16.0,41.0,-13.0
12.857216596603394,,,-3375.0,558.0,5567.0,-16.0,36.0,-55.0
12.877708673477173,,,-3839.0,530.0,5870.0,-14.0,26.0,-81.0
12.898320436477661,,,-2494.0,-93.0,7046.0,-3.0,15.0,-94.0
12.918810844421387,,,-961.0,84.0,8524.0,-9.0,2.0,-75.0
12.939323902130127,,,536.0,240.0,9489.0,-13.0,-12.0,-62.0
12.95971941947937,,,599.0,1440.0,7612.0,6.0,-26.0,-69.0
12.98029613494873,,,445.0,2466.0,5334.0,6.0,-37.0,-114.0
13.000752687454224,,,995.0,3406.0,2996.0,-7.0,-45.0,-162.0
13.021217584609985,,,2885.0,2452.0,96.0,-44.0,-47.0,-171.0
13.041599988937378,,,3532.0,363.0,-431.0,-48.0,-40.0,-138.0
13.06222677230835,,,3589.0,-1907.0,-817.0,-35.0,-30.0,-94.0
13.082536220550537,,,3041.0,-3209.0,-1675.0,-21.0,-18.0,-45.0
13.102955341339111,,,2004.0,-3190.0,-2931.0,-13.0,-10.0,-7.0
13.123429298400879,,,-273.0,-978.0,-5096.0,-8.0,-2.0,13.0
13.14383578300476,,,-1009.0,231.0,-5577.0,-9.0,-2.0,2.0
13.164211750030518,,,-1278.0,1197.0,-5521.0,-11.0,-6.0,-18.0
13.18460726737976,,,-802.0,2663.0,-3480.0,-14.0,-18.0,-67.0
13.2050621509552,,,-211.0,3426.0,-1696.0,-19.0,-26.0,-88.0
13.225527048110962,,,753.0,3774.0,144.0,-24.0,-31.0,-102.0
13.245909452438354,,,2877.0,2352.0,2799.0,-19.0,-24.0,-100.0
13.266522884368896,,,3304.0,1342.0,3384.0,-11.0,-17.0,-86.0
13.286929368972778,,,3174.0,758.0,3368.0,-9.0,-14.0,-70.0
13.303295850753784,,,2549.0,114.0,2416.0,-12.0,-16.0,-46.0
13.323878288269043,,,2322.0,64.0,1980.0,-13.0,-16.0,-38.0
13.344252586364746,,,2146.0,279.0,1785.0,-12.0,-16.0,-31.0
13.364827632904053,,,1654.0,775.0,1506.0,-5.0,-14.0,-24.0
13.385258674621582,,,1291.0,914.0,1274.0,-2.0,-13.0,-26.0
13.405704736709595,,,674.0,821.0,706.0,-3.0,-14.0,-27.0
13.426121711730957,,,579.0,542.0,427.0,-5.0,-13.0,-24.0
13.446675777435303,,,542.0,211.0,193.0,-5.0,-11.0,-18.0
13.467103481292725,,,455.0,-157.0,-219.0,0.0,-2.0,2.0
13.487683773040771,,,388.0,-104.0,-277.0,2.0,1.0,9.0
13.508016586303711,,,299.0,-5.0,-224.0,4.0,4.0,10.0
13.528553247451782,,,80.0,-501.0,-115.0,14.0,14.0,-5.0
13.548974514007568,,,-130.0,-1218.0,12.0,23.0,19.0,-21.0
13.56961727142334,,,-502.0,-1744.0,254.0,32.0,26.0,-36.0
13.590009450912476,,,-2058.0,-1029.0,472.0,42.0,39.0,-30.0
13.610688209533691,,,-3127.0,94.0,377.0,45.0,44.0,-15.0
13.630993366241455,,,-4790.0,3262.0,247.0,31.0,37.0,-5.0
13.651638746261597,,,-4948.0,4604.0,378.0,18.0,33.0,-5.0
13.672086000442505,,,-4811.0,5788.0,813.0,5.0,34.0,-14.0
13.692612171173096,,,-5280.0,6495.0,1758.0,-15.0,20.0,-57.0
13.713067293167114,,,-5734.0,5140.0,1388.0,-14.0,10.0,-73.0
13.733558177947998,,,-5880.0,3411.0,871.0,-8.0,8.0,-82.0
13.753835916519165,,,-5067.0,1139.0,1457.0,-4.0,7.0,-57.0
13.774434328079224,,,-5117.0,1325.0,2885.0,-3.0,-20.0,-40.0
13.794838666915894,,,-4702.0,1553.0,3796.0,-4.0,-57.0,-31.0
13.815321922302246,,,-1849.0,881.0,2728.0,4.0,-58.0,-26.0
13.835700035095215,,,-494.0,819.0,2176.0,3.0,-48.0,-34.0
13.856420278549194,,,542.0,676.0,1811.0,2.0,-41.0,-44.0
13.876850605010986,,,1241.0,-83.0,1345.0,5.0,-28.0,-42.0
13.897270441055298,,,1038.0,-549.0,1044.0,11.0,-21.0,-26.0
13.91773796081543,,,516.0,-658.0,240.0,18.0,-10.0,18.0
13.938249826431274,,,430.0,-211.0,-220.0,18.0,-4.0,32.0
13.958617925643921,,,404.0,440.0,-614.0,15.0,1.0,38.0
13.979060411453247,,,417.0,1565.0,-1168.0,8.0,8.0,25.0
13.999655961990356,,,279.0,1916.0,-1269.0,4.0,11.0,12.0
14.020143508911133,,,29.0,2156.0,-1195.0,1.0,13.0,1.0
14.04048776626587,,,-546.0,2107.0,-600.0,-5.0,16.0,-13.0
14.061099290847778,,,-877.0,1904.0,-141.0,-6.0,16.0,-17.0
14.081454277038574,,,-1211.0,1714.0,316.0,-7.0,15.0,-19.0
14.102096796035767,,,-1625.0,1625.0,987.0,-6.0,8.0,-21.0
14.122872591018677,,,-1712.0,1538.0,1139.0,-7.0,3.0,-22.0
14.143404245376587,,,-1681.0,973.0,863.0,-4.0,4.0,-16.0
14.163742303848267,,,-1669.0,847.0,663.0,-3.0,7.0,-10.0
14.184355735778809,,,-1668.0,816.0,575.0,-1.0,8.0,-6.0
14.204777717590332,,,-1629.0,1025.0,634.0,0.0,4.0,-5.0
14.225293397903442,,,-1498.0,1271.0,623.0,-2.0,3.0,-8.0
14.245747327804565,,,-1397.0,1492.0,712.0,-4.0,1.0,-12.0
14.266342639923096,,,-1409.0,1554.0,1169.0,-8.0,-5.0,-17.0
14.286924123764038,,,-1463.0,1430.0,1475.0,-8.0,-6.0,-13.0
14.307259559631348,,,-1502.0,1282.0,1735.0,-6.0,-8.0,-5.0
14.327468633651733,,,-1433.0,1062.0,1631.0,-2.0,-11.0,9.0
14.347946166992188,,,-1346.0,1133.0,1430.0,-1.0,-12.0,10.0
14.368435382843018,,,-1267.0,1245.0,1229.0,0.0,-14.0,9.0
14.38483452796936,,,-1039.0,1524.0,931.0,1.0,-16.0,5.0
14.405203819274902,,,-888.0,1554.0,866.0,2.0,-15.0,4.0
14.425753355026245,,,-755.0,1341.0,854.0,2.0,-15.0,7.0
14.446578741073608,,,-753.0,1256.0,760.0,3.0,-15.0,10.0
14.46705675125122,,,-726.0,1238.0,620.0,4.0,-14.0,12.0
14.487399339675903,,,-438.0,1280.0,477.0,5.0,-12.0,10.0
14.508028268814087,,,-272.0,1309.0,590.0,5.0,-11.0,8.0
14.528387069702148,,,-205.0,1329.0,687.0,4.0,-11.0,4.0
14.548972129821777,,,-127.0,1111.0,819.0,2.0,-11.0,0.0
14.569360256195068,,,41.0,797.0,1086.0,1.0,-10.0,1.0
14.589720964431763,,,104.0,357.0,1385.0,2.0,-10.0,3.0
14.610364437103271,,,-252.0,-281.0,1501.0,8.0,-8.0,9.0
14.630916833877563,,,-417.0,-261.0,1385.0,10.0,-7.0,11.0
14.651310443878174,,,-293.0,0.0,1045.0,9.0,-9.0,15.0
14.671748638153076,,,-221.0,221.0,774.0,6.0,-11.0,18.0
14.692401647567749,,,-286.0,502.0,418.0,4.0,-13.0,18.0
14.712682008743286,,,-979.0,1106.0,-174.0,4.0,-12.0,22.0
14.733439922332764,,,-1349.0,1500.0,-10.0,3.0,-13.0,25.0
14.753610372543335,,,-1529.0,1797.0,314.0,1.0,-17.0,27.0
14.774174690246582,,,-1567.0,2180.0,488.0,-2.0,-19.0,20.0
14.794615268707275,,,-1634.0,2637.0,450.0,-3.0,-20.0,10.0
14.81507658958435,,,-1664.0,3169.0,420.0,-4.0,-22.0,0.0
14.835408449172974,,,-1080.0,3861.0,600.0,-13.0,-26.0,-27.0
14.856018543243408,,,-501.0,3736.0,769.0,-22.0,-31.0,-42.0
14.876563549041748,,,58.0,3132.0,734.0,-29.0,-34.0,-52.0
14.89672589302063,,,814.0,1647.0,501.0,-31.0,-28.0,-49.0
14.917267560958862,,,1492.0,1279.0,809.0,-28.0,-24.0,-37.0
14.93778133392334,,,2349.0,304.0,1130.0,-24.0,-28.0,-21.0
14.958204746246338,,,2255.0,-10.0,770.0,-22.0,-32.0,-15.0
14.97876524925232,,,2259.0,101.0,332.0,-19.0,-30.0,-10.0
14.999161720275879,,,2642.0,1167.0,-238.0,-12.0,-19.0,-9.0
15.019712448120117,,,2707.0,1728.0,-404.0,-8.0,-14.0,-14.0
15.040011644363403,,,2619.0,2069.0,-656.0,-5.0,-11.0,-24.0
15.060665369033813,,,2654.0,2237.0,-767.0,-7.0,-16.0,-42.0
15.08113718032837,,,2923.0,2307.0,-237.0,-4.0,-25.0,-52.0
15.101633310317993,,,3393.0,2184.0,552.0,2.0,-32.0,-63.0
15.121967077255249,,,4314.0,1043.0,2459.0,22.0,-27.0,-73.0
15.142591953277588,,,4831.0,189.0,3640.0,27.0,-21.0,-62.0
15.162938117980957,,,4010.0,-2295.0,4944.0,38.0,-24.0,-32.0
15.183570861816406,,,2989.0,-2861.0,4684.0,50.0,-13.0,-15.0
15.204116582870483,,,2739.0,-2301.0,4537.0,50.0,2.0,9.0
15.22447657585144,,,2549.0,-897.0,5417.0,19.0,19.0,34.0
15.244814395904541,,,1057.0,-1678.0,5892.0,14.0,21.0,37.0
15.265442848205566,,,-1698.0,-3117.0,5499.0,20.0,26.0,86.0
15.285945415496826,,,-2388.0,-3063.0,4594.0,29.0,30.0,104.0
15.306434869766235,,,-2435.0,-2192.0,4081.0,27.0,33.0,99.0
15.326781272888184,,,-2692.0,-2029.0,5143.0,7.0,20.0,67.0
15.347375392913818,,,-3200.0,-3055.0,5483.0,13.0,22.0,81.0
15.367818117141724,,,-3193.0,-3220.0,5449.0,24.0,25.0,107.0
15.388311862945557,,,-2088.0,-1000.0,4153.0,42.0,20.0,134.0
15.408777475357056,,,-1684.0,591.0,2998.0,47.0,12.0,131.0
15.429342031478882,,,-1302.0,2061.0,1487.0,47.0,3.0,124.0
15.449731349945068,,,-590.0,3958.0,-1757.0,44.0,-4.0,112.0
15.470272302627563,,,-867.0,4844.0,-2661.0,46.0,-6.0,100.0
15.490566730499268,,,-1671.0,5316.0,-3273.0,53.0,-8.0,80.0
15.511104345321655,,,-3388.0,4739.0,-5575.0,54.0,-2.0,18.0
15.531403541564941,,,-4003.0,4675.0,-7228.0,40.0,0.0,0.0
15.552022457122803,,,-3753.0,4882.0,-8090.0,11.0,0.0,-10.0
15.572459936141968,,,-2894.0,4407.0,-7286.0,10.0,4.0,-12.0
15.592979431152344,,,-2428.0,3668.0,-6369.0,12.0,9.0,-16.0
15.613540410995483,,,-2895.0,2445.0,-5335.0,3.0,6.0,-36.0
15.634106874465942,,,-2420.0,2031.0,-4707.0,-9.0,9.0,-42.0
15.654581785202026,,,-1059.0,1944.0,-3595.0,-27.0,14.0,-49.0
15.675079584121704,,,3802.0,1220.0,353.0,-49.0,22.0,-59.0
15.695531845092773,,,5401.0,162.0,2930.0,-44.0,26.0,-62.0
15.716017961502075,,,6218.0,-704.0,5077.0,-40.0,31.0,-54.0
15.73622179031372,,,7590.0,-2353.0,7972.0,-41.0,46.0,-28.0
15.75683856010437,,,7882.0,-3356.0,9001.0,-36.0,54.0,-12.0
15.777257919311523,,,5914.0,-3301.0,9076.0,-23.0,62.0,16.0
15.79778265953064,,,4661.0,-2759.0,8004.0,-16.0,65.0,25.0
15.818191528320312,,,3702.0,-2242.0,6452.0,-10.0,68.0,29.0
15.838762998580933,,,2565.0,-1797.0,2629.0,-8.0,65.0,26.0
15.859167575836182,,,2472.0,-2596.0,535.0,-2.0,66.0,27.0
15.879693984985352,,,2359.0,-3719.0,-1262.0,6.0,65.0,36.0
15.900232076644897,,,1487.0,-5635.0,-4338.0,18.0,64.0,81.0
15.920673370361328,,,666.0,-5354.0,-5466.0,27.0,75.0,106.0
15.941159963607788,,,-416.0,-3966.0,-5687.0,36.0,79.0,127.0
15.961541414260864,,,-2709.0,-612.0,-3664.0,29.0,66.0,123.0
15.982057571411133,,,-4495.0,613.0,-233.0,12.0,58.0,104.0
16.00275444984436,,,-6006.0,369.0,4266.0,-4.0,43.0,88.0
16.023167848587036,,,-6111.0,-3769.0,10813.0,9.0,52.0,57.0
16.0436270236969,,,-5901.0,-5502.0,12269.0,16.0,53.0,50.0
16.0640606880188,,,-5526.0,-8128.0,8220.0,35.0,54.0,-1.0
16.084645748138428,,,-5271.0,-7146.0,7050.0,21.0,46.0,-3.0
16.10518455505371,,,-4657.0,-5097.0,6788.0,10.0,24.0,7.0
16.125624895095825,,,-3097.0,-3257.0,5424.0,15.0,2.0,47.0
16.145958185195923,,,-2760.0,-3346.0,3723.0,24.0,-4.0,85.0
16.166857719421387,,,-2888.0,-3305.0,1583.0,31.0,-13.0,111.0
16.183188915252686,,,-3651.0,-2949.0,-2883.0,33.0,-28.0,121.0
16.203600645065308,,,-3967.0,-2495.0,-4724.0,28.0,-39.0,111.0
16.22417116165161,,,-4268.0,-2062.0,-5987.0,20.0,-48.0,95.0
16.244426012039185,,,-4172.0,-1962.0,-6123.0,10.0,-60.0,50.0
16.265190839767456,,,-3575.0,-2258.0,-5355.0,12.0,-55.0,42.0
16.285508394241333,,,-2446.0,-1669.0,-2223.0,7.0,-26.0,55.0
16.306131839752197,,,-2020.0,-1015.0,842.0,-5.0,-10.0,48.0
16.32647395133972,,,-1146.0,-884.0,4678.0,-16.0,-7.0,28.0
16.347098112106323,,,1507.0,-2296.0,8383.0,-19.0,4.0,3.0
16.367323398590088,,,2121.0,-2555.0,9093.0,-19.0,13.0,1.0
16.38790726661682,,,2425.0,-3081.0,8123.0,-12.0,15.0,-6.0
16.4082133769989,,,1665.0,-3813.0,4693.0,9.0,27.0,-11.0
16.428847074508667,,,591.0,-3614.0,3896.0,12.0,28.0,-10.0
16.449395895004272,,,-350.0,-3377.0,3264.0,11.0,28.0,-1.0
16.469969272613525,,,-1529.0,-3411.0,2446.0,5.0,29.0,24.0
16.490366458892822,,,-1823.0,-3692.0,2029.0,7.0,24.0,26.0
16.51085352897644,,,-2122.0,-3975.0,1500.0,9.0,14.0,24.0
16.53125786781311,,,-2454.0,-4169.0,1067.0,7.0,4.0,20.0
16.551868677139282,,,-2611.0,-4123.0,1041.0,5.0,-7.0,11.0
16.57232141494751,,,-1102.0,-3341.0,1448.0,4.0,-20.0,2.0
16.59275221824646,,,-128.0,-2801.0,1730.0,2.0,-20.0,2.0
16.613085508346558,,,729.0,-2347.0,2144.0,-3.0,-20.0,3.0
16.633780002593994,,,2283.0,-1571.0,2887.0,-5.0,-20.0,16.0
16.654139518737793,,,2689.0,-884.0,3218.0,-3.0,-17.0,22.0
16.674800634384155,,,2871.0,-121.0,3440.0,1.0,-13.0,22.0
16.695124626159668,,,3077.0,267.0,2448.0,11.0,-13.0,26.0
16.71567940711975,,,2924.0,157.0,1398.0,17.0,-13.0,30.0
16.7361261844635,,,2588.0,366.0,358.0,22.0,-15.0,35.0
16.756560564041138,,,2163.0,2164.0,-1517.0,27.0,-2.0,36.0
16.77703881263733,,,2364.0,3123.0,-2155.0,31.0,13.0,29.0
16.797555923461914,,,2881.0,3615.0,-2734.0,37.0,32.0,-2.0
16.817951679229736,,,3184.0,3158.0,-2866.0,40.0,45.0,-9.0
16.838419675827026,,,3409.0,2471.0,-2609.0,43.0,54.0,-13.0
16.85897994041443,,,2773.0,548.0,-1019.0,37.0,57.0,-25.0
16.879348039627075,,,2192.0,-181.0,357.0,29.0,54.0,-17.0
16.899795293807983,,,1697.0,-675.0,2178.0,26.0,52.0,-2.0
16.920334815979004,,,648.0,-2483.0,4856.0,35.0,41.0,2.0
16.940948009490967,,,344.0,-3695.0,5111.0,35.0,39.0,-6.0
16.961413145065308,,,-45.0,-4469.0,5648.0,32.0,32.0,-11.0
16.98189425468445,,,98.0,-4832.0,6803.0,20.0,8.0,2.0
17.002366542816162,,,576.0,-4680.0,6497.0,20.0,1.0,19.0
17.022868156433105,,,863.0,-4315.0,5829.0,21.0,-2.0,29.0
17.043186902999878,,,797.0,-3442.0,4488.0,17.0,-6.0,43.0
17.063557147979736,,,538.0,-3125.0,3997.0,13.0,-9.0,49.0
17.084121465682983,,,54.0,-2774.0,2802.0,4.0,-13.0,53.0
17.10457181930542,,,-102.0,-2609.0,2198.0,3.0,-13.0,54.0
17.125069618225098,,,-311.0,-2339.0,1665.0,1.0,-14.0,54.0
17.14579200744629,,,-756.0,-1548.0,755.0,-5.0,-12.0,40.0
17.16626524925232,,,-820.0,-1095.0,700.0,-9.0,-9.0,27.0
17.186793565750122,,,-601.0,-583.0,917.0,-14.0,-7.0,12.0
17.20723032951355,,,566.0,75.0,1233.0,-18.0,-3.0,-9.0
17.227484703063965,,,1072.0,-35.0,1088.0,-17.0,1.0,-11.0
17.248140573501587,,,1300.0,-246.0,927.0,-15.0,5.0,-12.0
17.264557600021362,,,1241.0,-415.0,747.0,-15.0,9.0,-13.0
17.284998178482056,,,1136.0,-430.0,773.0,-18.0,9.0,-13.0
17.305525541305542,,,836.0,-817.0,1009.0,-20.0,7.0,-23.0
17.326191186904907,,,778.0,-1192.0,1121.0,-19.0,5.0,-28.0
17.346381425857544,,,811.0,-1595.0,1272.0,-19.0,3.0,-29.0
17.366658449172974,,,540.0,-2616.0,1732.0,-16.0,-6.0,-24.0
17.387254238128662,,,3.0,-3104.0,1909.0,-16.0,-13.0,-24.0
17.407619953155518,,,-658.0,-3363.0,2079.0,-19.0,-19.0,-22.0
17.428218126296997,,,-2040.0,-3670.0,3396.0,-31.0,-43.0,-21.0
17.448577880859375,,,-2639.0,-3780.0,4395.0,-36.0,-61.0,-19.0
17.469159603118896,,,-2912.0,-3615.0,4715.0,-40.0,-68.0,-14.0
17.489583015441895,,,-3456.0,-2125.0,5430.0,-61.0,-66.0,-22.0
17.510159015655518,,,-3214.0,-1147.0,5866.0,-72.0,-68.0,-27.0
17.53054118156433,,,-2654.0,-160.0,6207.0,-80.0,-70.0,-25.0
17.550955057144165,,,-1694.0,2477.0,6791.0,-98.0,-60.0,-44.0
17.571478366851807,,,-515.0,3651.0,7200.0,-104.0,-52.0,-62.0
17.59220790863037,,,4296.0,3734.0,7101.0,-81.0,-53.0,-35.0
17.612510919570923,,,6305.0,2962.0,6042.0,-64.0,-46.0,-6.0
17.633114099502563,,,7185.0,2298.0,4860.0,-51.0,-41.0,4.0
17.653401851654053,,,7383.0,2526.0,2913.0,-32.0,-32.0,11.0
17.674140453338623,,,7137.0,2933.0,2100.0,-25.0,-23.0,6.0
17.694496393203735,,,6774.0,3256.0,1624.0,-19.0,-11.0,-2.0
17.715034008026123,,,5867.0,2924.0,705.0,-12.0,3.0,-6.0
17.735719919204712,,,5318.0,2168.0,-146.0,-10.0,14.0,-9.0
17.760111808776855,,,3524.0,574.0,-1595.0,-7.0,29.0,-12.0
17.780458688735962,,,2364.0,-163.0,-2353.0,-3.0,29.0,-13.0
17.8011257648468,,,1125.0,-864.0,-3289.0,1.0,27.0,-12.0
17.82141876220703,,,-1252.0,-1596.0,-4927.0,5.0,25.0,-10.0
17.84210729598999,,,-2118.0,-1545.0,-5355.0,2.0,24.0,-13.0
17.86247968673706,,,-2525.0,-1276.0,-5295.0,-2.0,24.0,-14.0
17.883044719696045,,,-2479.0,-825.0,-3250.0,-6.0,14.0,-20.0
17.90337610244751,,,-2310.0,-712.0,-2009.0,-7.0,7.0,-22.0
17.923880100250244,,,-2138.0,-365.0,-480.0,-10.0,6.0,-22.0
17.944249868392944,,,-791.0,2079.0,4580.0,-16.0,11.0,-20.0
17.96487021446228,,,200.0,2652.0,6493.0,-13.0,18.0,-30.0
17.985174894332886,,,24.0,673.0,6672.0,-13.0,22.0,-52.0
18.001816272735596,,,-55.0,7.0,6405.0,-13.0,20.0,-58.0
18.022253036499023,,,144.0,-463.0,5948.0,-15.0,15.0,-60.0
18.042842388153076,,,897.0,-1629.0,4376.0,-12.0,9.0,-41.0
18.063134908676147,,,867.0,-1772.0,3638.0,-6.0,7.0,-30.0
18.08362627029419,,,479.0,-1577.0,2914.0,0.0,4.0,-25.0
18.10413408279419,,,-834.0,-815.0,1988.0,11.0,-6.0,-18.0
18.12467312812805,,,-1402.0,-192.0,1994.0,13.0,-12.0,-9.0
18.145190954208374,,,-1683.0,431.0,2110.0,12.0,-15.0,0.0
18.165569305419922,,,-1576.0,561.0,1818.0,6.0,-16.0,-6.0
18.18596076965332,,,-1299.0,668.0,1834.0,6.0,-18.0,-7.0
18.20646643638611,,,-663.0,1490.0,2084.0,4.0,-21.0,-1.0
18.227161645889282,,,-344.0,1671.0,2093.0,1.0,-21.0,-8.0
18.247450828552246,,,-59.0,1522.0,1919.0,-1.0,-20.0,-16.0
18.268096923828125,,,352.0,1114.0,1585.0,-4.0,-17.0,-17.0
18.29258108139038,,,516.0,1110.0,1646.0,-5.0,-17.0,-16.0
18.313021421432495,,,675.0,1081.0,1777.0,-8.0,-16.0,-15.0
18.33339786529541,,,801.0,889.0,1857.0,-13.0,-17.0,-12.0
18.35374355316162,,,856.0,551.0,1853.0,-18.0,-16.0,-9.0
18.374404907226562,,,784.0,22.0,1803.0,-19.0,-13.0,-4.0
18.394768953323364,,,764.0,-61.0,1738.0,-17.0,-12.0,-2.0
18.415443658828735,,,692.0,-26.0,1711.0,-15.0,-12.0,-3.0
18.435994148254395,,,422.0,159.0,1767.0,-11.0,-13.0,-3.0
18.456408977508545,,,231.0,217.0,1806.0,-11.0,-13.0,-1.0
18.47675657272339,,,74.0,185.0,1790.0,-10.0,-13.0,3.0
18.497244358062744,,,-222.0,220.0,1793.0,-8.0,-13.0,5.0
18.517642974853516,,,-335.0,406.0,1956.0,-7.0,-13.0,5.0
18.53820824623108,,,-331.0,445.0,2142.0,-9.0,-13.0,6.0
18.558761835098267,,,-66.0,38.0,2315.0,-7.0,-8.0,12.0
18.579168796539307,,,-64.0,86.0,2501.0,-2.0,-3.0,11.0
18.599738597869873,,,-209.0,299.0,3049.0,5.0,0.0,5.0
18.620112657546997,,,-303.0,108.0,2998.0,8.0,-2.0,3.0
18.640609741210938,,,-367.0,-32.0,2734.0,10.0,-6.0,2.0
18.66098713874817,,,-360.0,514.0,2291.0,14.0,-7.0,1.0
18.68154287338257,,,-294.0,921.0,2323.0,13.0,-6.0,3.0
18.701876640319824,,,-219.0,1087.0,2406.0,13.0,-4.0,5.0
18.722349405288696,,,-160.0,1022.0,2478.0,13.0,-1.0,11.0
18.743001699447632,,,-247.0,845.0,2390.0,12.0,0.0,13.0
18.763427019119263,,,-379.0,651.0,2287.0,13.0,0.0,13.0
18.783794403076172,,,-638.0,665.0,2366.0,13.0,-1.0,7.0
18.80431866645813,,,-658.0,636.0,2420.0,11.0,-1.0,2.0
18.820786714553833,,,-622.0,207.0,2319.0,12.0,-1.0,-2.0
18.8411922454834,,,-677.0,171.0,2326.0,14.0,-2.0,-3.0
18.861693620681763,,,-712.0,93.0,2336.0,14.0,-3.0,-2.0
18.882474184036255,,,-665.0,-147.0,2250.0,14.0,-4.0,0.0
18.902639865875244,,,-588.0,-286.0,2166.0,15.0,-3.0,2.0
18.92321801185608,,,-519.0,-156.0,2113.0,15.0,-2.0,4.0
18.9437837600708,,,-570.0,182.0,2207.0,15.0,-1.0,1.0
18.964236974716187,,,-605.0,307.0,2358.0,15.0,-3.0,1.0
18.984582901000977,,,-606.0,342.0,2411.0,15.0,-4.0,0.0
19.00518774986267,,,-607.0,287.0,2341.0,15.0,-4.0,0.0
19.025547742843628,,,-574.0,289.0,2318.0,14.0,-5.0,1.0
19.046239852905273,,,-505.0,375.0,2256.0,14.0,-6.0,2.0
19.066494464874268,,,-362.0,498.0,2047.0,12.0,-5.0,-1.0
19.087039947509766,,,-314.0,419.0,1941.0,13.0,-4.0,-3.0
19.107548475265503,,,-209.0,459.0,1955.0,12.0,-3.0,-2.0
19.127997159957886,,,-113.0,537.0,2067.0,11.0,-2.0,0.0
19.148714542388916,,,-61.0,544.0,2135.0,10.0,-1.0,-1.0
19.169147729873657,,,-84.0,430.0,2111.0,8.0,2.0,-7.0
19.189668893814087,,,-78.0,365.0,2113.0,8.0,2.0,-8.0
19.210134744644165,,,-38.0,309.0,2152.0,8.0,2.0,-8.0
19.230432271957397,,,58.0,486.0,2284.0,6.0,2.0,-9.0
19.251004457473755,,,106.0,486.0,2349.0,5.0,4.0,-11.0
19.271284341812134,,,108.0,369.0,2401.0,4.0,4.0,-12.0
19.291954040527344,,,136.0,132.0,2461.0,4.0,5.0,-9.0
19.312390327453613,,,111.0,141.0,2470.0,4.0,5.0,-9.0
19.33280038833618,,,-41.0,199.0,2398.0,3.0,4.0,-12.0
19.353174448013306,,,-101.0,159.0,2408.0,2.0,4.0,-12.0
19.373754262924194,,,-133.0,120.0,2427.0,2.0,4.0,-10.0
19.394242763519287,,,-163.0,66.0,2396.0,2.0,4.0,-6.0
19.414450645446777,,,-187.0,60.0,2372.0,1.0,3.0,-5.0
19.435124397277832,,,-226.0,60.0,2379.0,1.0,3.0,-5.0
19.455646276474,,,-232.0,60.0,2434.0,0.0,2.0,-4.0
19.476049661636353,,,-210.0,70.0,2457.0,0.0,1.0,-4.0
19.496363878250122,,,-175.0,61.0,2449.0,1.0,1.0,-3.0
19.51693820953369,,,-162.0,-17.0,2369.0,2.0,1.0,-2.0
19.537367343902588,,,-175.0,46.0,2287.0,2.0,1.0,-1.0
19.557830095291138,,,-206.0,139.0,2216.0,1.0,2.0,-1.0
19.578280210494995,,,-252.0,130.0,2224.0,0.0,2.0,-1.0
19.599101543426514,,,-246.0,40.0,2223.0,0.0,2.0,0.0
19.619506120681763,,,-225.0,61.0,2227.0,0.0,2.0,1.0
19.639938592910767,,,-174.0,108.0,2237.0,0.0,2.0,0.0
19.660510540008545,,,-172.0,86.0,2249.0,0.0,2.0,-1.0
19.681087732315063,,,-174.0,-9.0,2258.0,0.0,2.0,-1.0
19.70162081718445,,,-151.0,-21.0,2275.0,1.0,3.0,1.0
19.72213315963745,,,-135.0,11.0,2275.0,1.0,3.0,2.0
19.74252200126648,,,-205.0,67.0,2215.0,0.0,3.0,1.0
19.762914657592773,,,-266.0,73.0,2184.0,1.0,3.0,0.0
19.783300161361694,,,-299.0,116.0,2203.0,1.0,3.0,-1.0
19.803869247436523,,,-226.0,170.0,2301.0,1.0,3.0,2.0
19.824430227279663,,,-191.0,93.0,2306.0,1.0,2.0,2.0
19.84485363960266,,,-217.0,35.0,2209.0,1.0,2.0,2.0
19.865419149398804,,,-242.0,53.0,2178.0,1.0,2.0,1.0
19.885765552520752,,,-218.0,82.0,2164.0,1.0,2.0,0.0
19.90213704109192,,,-261.0,148.0,2137.0,1.0,2.0,1.0
19.92264413833618,,,-274.0,153.0,2115.0,1.0,2.0,1.0
19.943196296691895,,,-281.0,135.0,2166.0,1.0,2.0,1.0
19.96372389793396,,,-299.0,5.0,2344.0,2.0,-3.0,2.0
19.98415446281433,,,-221.0,-37.0,2183.0,2.0,-2.0,3.0
20.00484275817871,,,-186.0,40.0,1982.0,1.0,0.0,2.0
20.025062084197998,,,-442.0,133.0,1967.0,-2.0,0.0,-3.0
20.04554557800293,,,-609.0,42.0,2155.0,-2.0,-3.0,-2.0
20.065980672836304,,,-677.0,-25.0,2305.0,-1.0,-4.0,3.0
20.086622714996338,,,-552.0,204.0,2203.0,-1.0,-7.0,13.0
20.10709547996521,,,-525.0,543.0,2086.0,-3.0,-7.0,12.0
20.127310752868652,,,-575.0,942.0,1988.0,-7.0,-8.0,1.0
20.14802074432373,,,-565.0,727.0,2009.0,-7.0,-7.0,-1.0
20.168536901474,,,-490.0,461.0,2084.0,-8.0,-7.0,3.0
20.188782930374146,,,-262.0,362.0,2406.0,-9.0,-7.0,13.0
20.2094247341156,,,-161.0,426.0,2491.0,-8.0,-7.0,9.0
20.22977924346924,,,-50.0,539.0,2527.0,-7.0,-7.0,4.0
20.250394105911255,,,160.0,495.0,2454.0,-4.0,-6.0,-5.0
20.274741172790527,,,205.0,160.0,2275.0,-3.0,-5.0,-5.0
20.29544949531555,,,86.0,-443.0,1860.0,1.0,-3.0,1.0
20.31556749343872,,,-47.0,-669.0,1789.0,1.0,-1.0,2.0
20.3360493183136,,,-242.0,-1002.0,1756.0,2.0,0.0,-1.0
20.356504201889038,,,-1343.0,-2409.0,1896.0,1.0,0.0,1.0
20.37723970413208,,,-2229.0,-3230.0,2111.0,0.0,-2.0,10.0
20.397632122039795,,,-3062.0,-3624.0,2536.0,1.0,-5.0,16.0
20.41820001602173,,,-3083.0,-2936.0,3660.0,-7.0,-14.0,15.0
20.4385347366333,,,-2643.0,-2806.0,4347.0,-12.0,-18.0,11.0
20.458975076675415,,,-2184.0,-3481.0,4757.0,-22.0,-29.0,15.0
20.47939944267273,,,-1995.0,-3577.0,4826.0,-26.0,-32.0,19.0
20.499866008758545,,,-1683.0,-2999.0,5227.0,-33.0,-34.0,21.0
20.5203697681427,,,-973.0,-1500.0,6706.0,-57.0,-32.0,18.0
20.54090642929077,,,-1146.0,-1642.0,7486.0,-63.0,-35.0,24.0
20.561724185943604,,,-1570.0,-1902.0,7677.0,-62.0,-39.0,33.0
20.582149267196655,,,-2579.0,-1566.0,7060.0,-56.0,-40.0,35.0
20.60256052017212,,,-2750.0,-905.0,6674.0,-59.0,-46.0,25.0
20.623077154159546,,,-2379.0,-199.0,5888.0,-62.0,-53.0,19.0
20.639458894729614,,,-192.0,1923.0,3694.0,-65.0,-57.0,26.0
20.66005253791809,,,1702.0,3892.0,2975.0,-62.0,-51.0,22.0
20.680410861968994,,,4155.0,6003.0,2882.0,-51.0,-42.0,10.0
20.70082712173462,,,6280.0,5980.0,4056.0,-28.0,-19.0,3.0
20.721338033676147,,,6180.0,4743.0,4719.0,-27.0,-2.0,5.0
20.74190592765808,,,6174.0,3083.0,5079.0,-12.0,16.0,-8.0
20.76219940185547,,,5921.0,2461.0,4505.0,-1.0,7.0,-19.0
20.782755613327026,,,5272.0,1859.0,3211.0,7.0,-2.0,-25.0
20.803093194961548,,,2758.0,1351.0,326.0,6.0,9.0,-21.0
20.823745250701904,,,1838.0,1378.0,-266.0,2.0,17.0,-14.0
20.844374895095825,,,1475.0,940.0,-573.0,4.0,13.0,-9.0
20.86473846435547,,,8.0,-1414.0,-1739.0,14.0,-3.0,-18.0
20.884939193725586,,,-1017.0,-2527.0,-2782.0,15.0,-8.0,-15.0
20.905430555343628,,,-1809.0,-3083.0,-3480.0,11.0,-9.0,0.0
20.92587161064148,,,-1738.0,-2658.0,-2904.0,12.0,-8.0,24.0
20.94662570953369,,,-1544.0,-2098.0,-1710.0,16.0,-12.0,27.0
20.967010736465454,,,-815.0,-2189.0,274.0,20.0,-10.0,25.0
20.9875226020813,,,-214.0,-2522.0,1189.0,31.0,0.0,25.0
21.00800585746765,,,182.0,-2497.0,2236.0,44.0,11.0,26.0
21.02819848060608,,,-691.0,-1587.0,3992.0,46.0,20.0,20.0
21.04878044128418,,,-1561.0,-1261.0,4594.0,36.0,23.0,12.0
21.069249153137207,,,-1984.0,-912.0,4903.0,28.0,26.0,0.0
21.089706420898438,,,-1561.0,3.0,4186.0,16.0,34.0,-8.0
21.110137462615967,,,-978.0,497.0,3211.0,9.0,41.0,-8.0
21.130666255950928,,,-110.0,1085.0,2139.0,3.0,49.0,-10.0
21.151118993759155,,,1607.0,2607.0,962.0,4.0,51.0,-19.0
21.17159676551819,,,2030.0,3284.0,1457.0,13.0,47.0,-35.0
21.19206142425537,,,2108.0,3531.0,2364.0,16.0,42.0,-58.0
21.212645053863525,,,2325.0,3680.0,4142.0,8.0,51.0,-72.0
21.233118772506714,,,2922.0,3795.0,4695.0,-4.0,50.0,-62.0
21.253395080566406,,,4103.0,2844.0,3688.0,-24.0,44.0,-52.0
21.273760080337524,,,4432.0,2957.0,3771.0,-28.0,41.0,-53.0
21.294476985931396,,,4618.0,3100.0,4088.0,-26.0,37.0,-52.0
21.31495690345764,,,3971.0,1524.0,3527.0,-14.0,43.0,-40.0
21.335514068603516,,,3338.0,590.0,3004.0,-6.0,47.0,-27.0
21.355883598327637,,,2664.0,59.0,2477.0,-1.0,49.0,-14.0
21.37640118598938,,,1153.0,-43.0,1448.0,1.0,41.0,-2.0
21.39683485031128,,,489.0,66.0,1037.0,0.0,36.0,1.0
21.417409896850586,,,-89.0,196.0,709.0,1.0,29.0,0.0
21.437771558761597,,,-906.0,606.0,542.0,4.0,16.0,-8.0
21.45838952064514,,,-1061.0,692.0,612.0,5.0,9.0,-15.0
21.47901749610901,,,-916.0,719.0,757.0,2.0,0.0,-26.0
21.499491453170776,,,-578.0,827.0,890.0,0.0,-2.0,-29.0
21.519935369491577,,,81.0,867.0,951.0,0.0,-1.0,-32.0
21.540401220321655,,,1485.0,297.0,1061.0,3.0,3.0,-30.0
21.560819149017334,,,1942.0,-301.0,1173.0,7.0,6.0,-20.0
21.581416845321655,,,2238.0,-724.0,1414.0,13.0,10.0,-6.0
21.601893424987793,,,2339.0,-542.0,2042.0,21.0,19.0,15.0
21.62257146835327,,,2085.0,-260.0,2287.0,22.0,23.0,16.0
21.642853498458862,,,1572.0,-57.0,2596.0,21.0,24.0,15.0
21.663426399230957,,,826.0,-281.0,2975.0,25.0,20.0,20.0
21.683852910995483,,,544.0,-356.0,3113.0,28.0,21.0,24.0
21.704346895217896,,,110.0,-357.0,3275.0,30.0,19.0,26.0
21.720752239227295,,,-466.0,-764.0,3515.0,32.0,7.0,39.0
21.741288423538208,,,-449.0,-939.0,3363.0,33.0,5.0,47.0
21.76162838935852,,,-551.0,-1121.0,2557.0,32.0,4.0,61.0
21.78233551979065,,,-755.0,-1217.0,2269.0,30.0,2.0,67.0
21.802871465682983,,,-928.0,-1188.0,2161.0,28.0,-3.0,76.0
21.82323408126831,,,-953.0,-852.0,1854.0,20.0,-10.0,97.0
21.84353256225586,,,-899.0,-797.0,1539.0,19.0,-7.0,103.0
21.864152669906616,,,-1097.0,-805.0,1595.0,16.0,-8.0,106.0
21.88458776473999,,,-1592.0,-658.0,2292.0,11.0,-19.0,113.0
21.90500545501709,,,-1611.0,-556.0,2350.0,11.0,-21.0,112.0
21.9257972240448,,,-1583.0,-556.0,2266.0,10.0,-21.0,110.0
21.94595170021057,,,-1666.0,-558.0,2605.0,5.0,-29.0,103.0
21.966357231140137,,,-1666.0,-559.0,2742.0,1.0,-33.0,95.0
21.98673415184021,,,-1273.0,-363.0,2440.0,-6.0,-29.0,87.0
22.007230758666992,,,-1032.0,-321.0,2341.0,-8.0,-28.0,78.0
22.027601957321167,,,-763.0,-347.0,2325.0,-7.0,-29.0,66.0
22.048171520233154,,,70.0,-299.0,2619.0,-7.0,-37.0,41.0
22.068666696548462,,,843.0,-185.0,2255.0,-5.0,-36.0,34.0
22.089122533798218,,,1456.0,-91.0,1617.0,-3.0,-27.0,26.0
22.109895944595337,,,1652.0,-109.0,913.0,-1.0,-16.0,8.0
22.130355834960938,,,1627.0,-120.0,793.0,0.0,-10.0,4.0
22.15096163749695,,,1581.0,-177.0,823.0,-1.0,-4.0,2.0
22.171371698379517,,,1287.0,-425.0,1188.0,-5.0,5.0,-3.0
22.19191861152649,,,1246.0,-472.0,1026.0,-5.0,10.0,0.0
22.212235689163208,,,1422.0,-413.0,894.0,-5.0,17.0,6.0
22.23264765739441,,,2075.0,-442.0,2035.0,5.0,18.0,6.0
22.253333806991577,,,1693.0,-564.0,2697.0,6.0,13.0,2.0
22.273694038391113,,,988.0,-835.0,3581.0,0.0,6.0,5.0
22.294398069381714,,,1141.0,-923.0,3879.0,1.0,-1.0,14.0
22.31456446647644,,,1142.0,-808.0,3768.0,3.0,-3.0,19.0
22.33505868911743,,,560.0,-339.0,3569.0,1.0,-8.0,6.0
22.355268478393555,,,444.0,-95.0,3505.0,-3.0,-10.0,-2.0
22.37593364715576,,,519.0,-88.0,3687.0,-6.0,-15.0,-5.0
22.396400928497314,,,409.0,-330.0,3744.0,-12.0,-19.0,6.0
22.416882753372192,,,393.0,-318.0,3678.0,-16.0,-20.0,7.0
22.437419414520264,,,514.0,-177.0,3676.0,-19.0,-23.0,0.0
22.45792555809021,,,916.0,200.0,3391.0,-16.0,-28.0,-18.0
22.478410720825195,,,1029.0,142.0,3168.0,-14.0,-29.0,-20.0
22.498966217041016,,,1341.0,-110.0,2502.0,-11.0,-24.0,-13.0
22.51959252357483,,,1490.0,-36.0,2129.0,-9.0,-19.0,-14.0
22.539910078048706,,,1406.0,90.0,1862.0,-9.0,-14.0,-17.0
22.56037998199463,,,1209.0,-119.0,2069.0,-8.0,-10.0,-17.0
22.580878019332886,,,1324.0,-269.0,2390.0,-5.0,-9.0,-15.0
22.601410388946533,,,1464.0,-387.0,2651.0,-2.0,-8.0,-13.0
22.621829986572266,,,1087.0,-405.0,2919.0,1.0,-9.0,-11.0
22.642172813415527,,,646.0,-333.0,2935.0,0.0,-10.0,-15.0
22.66269850730896,,,389.0,-241.0,2848.0,-2.0,-9.0,-20.0
22.683083534240723,,,665.0,-164.0,2579.0,-3.0,-5.0,-15.0
22.703675031661987,,,942.0,-262.0,2470.0,0.0,-3.0,-8.0
22.72409152984619,,,979.0,-333.0,2473.0,2.0,-1.0,-4.0
22.744765758514404,,,701.0,-359.0,2753.0,2.0,-1.0,-11.0
22.764906406402588,,,668.0,-354.0,2755.0,2.0,-1.0,-14.0
22.785558462142944,,,713.0,-347.0,2466.0,3.0,2.0,-12.0
22.805832862854004,,,581.0,-295.0,2498.0,3.0,4.0,-12.0
22.826693058013916,,,395.0,-221.0,2719.0,2.0,4.0,-15.0
22.84728765487671,,,538.0,-227.0,2877.0,3.0,3.0,-13.0
22.867522954940796,,,630.0,-323.0,2838.0,3.0,4.0,-8.0
22.888105154037476,,,280.0,-287.0,2787.0,1.0,4.0,-8.0
22.908608436584473,,,150.0,-252.0,2803.0,0.0,4.0,-10.0
22.928901433944702,,,239.0,-283.0,3011.0,1.0,3.0,-12.0
22.949576139450073,,,438.0,-382.0,3668.0,4.0,-4.0,-14.0
22.970029830932617,,,304.0,-278.0,3608.0,3.0,-7.0,-14.0
22.99058985710144,,,285.0,-207.0,3234.0,2.0,-5.0,-8.0
23.010929346084595,,,412.0,-179.0,2824.0,3.0,-2.0,-3.0
23.03144383430481,,,395.0,-119.0,2807.0,3.0,-1.0,-4.0
23.051904678344727,,,263.0,-40.0,2797.0,3.0,-1.0,-4.0
23.07245898246765,,,26.0,-27.0,2855.0,1.0,-1.0,-6.0
23.092835187911987,,,10.0,-13.0,2949.0,1.0,-1.0,-8.0
23.11336064338684,,,2.0,15.0,3007.0,1.0,-3.0,-9.0
23.133824586868286,,,19.0,38.0,2895.0,0.0,-2.0,-3.0
23.154475688934326,,,1.0,24.0,2891.0,-1.0,-2.0,-1.0
23.17498540878296,,,-40.0,16.0,2994.0,-2.0,-1.0,-5.0
23.195391416549683,,,-8.0,11.0,3048.0,-2.0,-3.0,-8.0
23.2158145904541,,,115.0,-30.0,2953.0,-2.0,-3.0,-7.0
23.236304998397827,,,185.0,32.0,2768.0,-1.0,-1.0,-3.0
23.256813287734985,,,128.0,59.0,2855.0,0.0,-1.0,-5.0
23.27726125717163,,,64.0,47.0,2966.0,1.0,-2.0,-8.0
23.297791719436646,,,-119.0,65.0,2997.0,0.0,-4.0,-9.0
23.318231105804443,,,-152.0,53.0,2941.0,-2.0,-4.0,-3.0
23.338650226593018,,,-78.0,19.0,2885.0,-3.0,-3.0,2.0
23.359134912490845,,,-40.0,61.0,2894.0,-2.0,-4.0,0.0
23.37950563430786,,,41.0,80.0,2859.0,-1.0,-3.0,-3.0
23.400045156478882,,,440.0,14.0,2779.0,0.0,-1.0,-2.0
23.420521020889282,,,419.0,-69.0,2784.0,1.0,0.0,-1.0
23.441060781478882,,,255.0,-100.0,2868.0,1.0,0.0,-1.0
23.461649656295776,,,-34.0,-82.0,2998.0,0.0,-2.0,-2.0
23.48191499710083,,,-75.0,-37.0,2991.0,0.0,-3.0,-2.0
23.50267791748047,,,-57.0,20.0,3025.0,0.0,-4.0,-3.0
23.518783569335938,,,120.0,64.0,3054.0,1.0,-4.0,-1.0
23.539312839508057,,,117.0,58.0,2985.0,2.0,-4.0,0.0
23.5597243309021,,,85.0,49.0,2837.0,2.0,-3.0,0.0
23.580180883407593,,,97.0,86.0,2635.0,2.0,-2.0,-1.0
23.60065507888794,,,74.0,171.0,2646.0,2.0,0.0,0.0
23.6211895942688,,,32.0,281.0,2794.0,1.0,0.0,1.0
23.641703367233276,,,-106.0,624.0,3612.0,2.0,3.0,-1.0
23.662184476852417,,,-105.0,727.0,4203.0,1.0,0.0,4.0
23.68269920349121,,,16.0,656.0,4327.0,-2.0,-3.0,21.0
23.70317244529724,,,-19.0,643.0,4076.0,-4.0,3.0,39.0
23.72366452217102,,,-411.0,921.0,4274.0,-5.0,4.0,42.0
23.744224309921265,,,0.0,1472.0,4156.0,-5.0,-10.0,22.0
23.764518976211548,,,670.0,1300.0,3144.0,4.0,-10.0,15.0
23.78500199317932,,,670.0,843.0,1803.0,13.0,-9.0,15.0
23.805389404296875,,,-652.0,-456.0,582.0,20.0,1.0,15.0
23.825863122940063,,,-877.0,-909.0,1272.0,19.0,-4.0,13.0
23.846359491348267,,,-724.0,-1265.0,1933.0,16.0,-8.0,21.0
23.866811752319336,,,-315.0,-1151.0,2306.0,15.0,-12.0,25.0
23.887381076812744,,,-302.0,-1094.0,1981.0,20.0,-16.0,12.0
23.90807580947876,,,-220.0,-1043.0,1084.0,27.0,-11.0,-7.0
23.928502559661865,,,-135.0,-630.0,1793.0,27.0,1.0,-13.0
23.948983192443848,,,6.0,-42.0,3342.0,23.0,10.0,-13.0
23.969244241714478,,,906.0,139.0,5117.0,23.0,14.0,17.0
23.989792585372925,,,692.0,347.0,5307.0,29.0,16.0,10.0
24.01026964187622,,,73.0,719.0,5470.0,30.0,17.0,-12.0
24.030726671218872,,,33.0,563.0,4592.0,26.0,10.0,-22.0
24.051167964935303,,,523.0,-55.0,3041.0,21.0,11.0,4.0
24.07160186767578,,,637.0,-490.0,1849.0,19.0,9.0,21.0
24.092007637023926,,,298.0,192.0,1337.0,18.0,-3.0,7.0
24.112916707992554,,,142.0,833.0,1747.0,15.0,-4.0,-7.0
24.13317036628723,,,203.0,1123.0,2194.0,11.0,-4.0,-16.0
24.15369153022766,,,1379.0,27.0,1921.0,5.0,-3.0,-9.0
24.174120903015137,,,1975.0,-745.0,1532.0,4.0,-4.0,2.0
24.19468069076538,,,1944.0,-1266.0,1450.0,17.0,-10.0,17.0
24.21511173248291,,,977.0,-583.0,1806.0,26.0,-6.0,15.0
24.235644817352295,,,-221.0,264.0,2196.0,32.0,-3.0,11.0
24.256150007247925,,,-1513.0,1093.0,2631.0,46.0,9.0,-9.0
24.27665376663208,,,-1657.0,1211.0,3267.0,55.0,14.0,-18.0
24.29706621170044,,,-1715.0,916.0,4143.0,61.0,13.0,-22.0
24.317670345306396,,,-1397.0,-608.0,4968.0,72.0,7.0,-32.0
24.338120937347412,,,-1039.0,-980.0,4730.0,75.0,7.0,-38.0
24.358549118041992,,,-523.0,-927.0,4394.0,72.0,8.0,-42.0
24.378941774368286,,,568.0,-346.0,3965.0,53.0,-4.0,-24.0
24.399406671524048,,,636.0,288.0,3779.0,52.0,-11.0,-6.0
24.41978144645691,,,-507.0,1408.0,3227.0,55.0,-20.0,4.0
24.440383672714233,,,-1171.0,1322.0,2980.0,53.0,-23.0,-7.0
24.46082854270935,,,-1465.0,1061.0,2656.0,52.0,-28.0,-19.0
24.481438398361206,,,-832.0,418.0,1895.0,45.0,-35.0,-39.0
24.502012252807617,,,-82.0,83.0,1705.0,38.0,-38.0,-41.0
24.522501945495605,,,773.0,-430.0,1558.0,33.0,-39.0,-42.0
24.542738914489746,,,1834.0,-850.0,1516.0,29.0,-26.0,-38.0
24.56330966949463,,,1480.0,-260.0,2099.0,22.0,-16.0,-27.0
24.583722352981567,,,1118.0,366.0,3025.0,15.0,-10.0,-5.0
24.600117206573486,,,398.0,305.0,3840.0,12.0,-3.0,29.0
24.62073302268982,,,-78.0,0.0,3566.0,7.0,0.0,20.0
24.64100956916809,,,-469.0,-171.0,3401.0,0.0,1.0,6.0
24.661689281463623,,,-406.0,-534.0,3947.0,-8.0,2.0,-12.0
24.682222366333008,,,242.0,-768.0,4321.0,-6.0,1.0,-16.0
24.702614784240723,,,864.0,-355.0,4436.0,0.0,4.0,-7.0
24.723036289215088,,,654.0,-92.0,4172.0,-2.0,6.0,1.0
24.74350595474243,,,410.0,71.0,3834.0,-6.0,8.0,6.0
24.764029026031494,,,161.0,217.0,3074.0,-10.0,9.0,7.0
24.784487009048462,,,166.0,176.0,2718.0,-12.0,10.0,11.0
24.80505061149597,,,-8.0,111.0,2507.0,-12.0,11.0,12.0
24.825552225112915,,,-379.0,-99.0,2561.0,-11.0,9.0,-1.0
24.84581685066223,,,-257.0,-186.0,2697.0,-9.0,6.0,-5.0
24.866320610046387,,,34.0,-251.0,2672.0,-8.0,5.0,-4.0
24.886816263198853,,,489.0,-72.0,2362.0,-8.0,10.0,6.0
24.907334566116333,,,418.0,88.0,2510.0,-7.0,11.0,6.0
24.927899599075317,,,116.0,114.0,2852.0,-6.0,8.0,-1.0
24.94843578338623,,,70.0,119.0,2797.0,-6.0,8.0,-3.0
24.968808889389038,,,180.0,115.0,2716.0,-6.0,8.0,0.0
24.98939299583435,,,138.0,170.0,2954.0,-4.0,8.0,4.0
25.00975513458252,,,-23.0,154.0,3146.0,-2.0,5.0,4.0
25.03036093711853,,,-192.0,140.0,3236.0,-2.0,2.0,4.0
25.05064606666565,,,-283.0,147.0,3079.0,-4.0,1.0,5.0
25.071170330047607,,,-209.0,186.0,3003.0,-3.0,0.0,7.0
25.091684818267822,,,-268.0,186.0,2846.0,-2.0,1.0,8.0
25.112069129943848,,,-276.0,72.0,2817.0,-2.0,0.0,4.0
25.132498502731323,,,-89.0,89.0,2838.0,-1.0,0.0,5.0
25.153126001358032,,,-98.0,118.0,2707.0,-1.0,1.0,7.0
25.173537969589233,,,-221.0,58.0,2304.0,-2.0,6.0,5.0
25.194222927093506,,,-253.0,110.0,2447.0,-2.0,7.0,1.0
25.214500904083252,,,-331.0,186.0,2927.0,0.0,3.0,-3.0
25.235156536102295,,,-300.0,177.0,2982.0,1.0,3.0,0.0
25.255459785461426,,,-346.0,148.0,2944.0,1.0,3.0,2.0
25.2761070728302,,,-762.0,168.0,2979.0,-1.0,0.0,-7.0
25.300650119781494,,,-771.0,161.0,3011.0,1.0,-1.0,-12.0
25.317076921463013,,,-499.0,81.0,2916.0,1.0,-2.0,-5.0
25.337445497512817,,,-473.0,114.0,2760.0,-1.0,-2.0,-3.0
25.35795545578003,,,-493.0,198.0,2578.0,-2.0,-1.0,-2.0
25.378345251083374,,,-595.0,98.0,2723.0,-4.0,-3.0,0.0
25.398954391479492,,,-552.0,169.0,3116.0,-5.0,-5.0,2.0
25.41938018798828,,,-364.0,299.0,3403.0,-5.0,-8.0,3.0
25.439924955368042,,,-87.0,151.0,2954.0,-4.0,-8.0,0.0
25.460270643234253,,,-77.0,154.0,2487.0,-5.0,-4.0,1.0
25.480895519256592,,,-183.0,212.0,2355.0,-7.0,-1.0,4.0
25.501283168792725,,,-166.0,193.0,3031.0,-7.0,-1.0,1.0
25.52176856994629,,,-175.0,169.0,3261.0,-8.0,-3.0,3.0
25.54224133491516,,,-187.0,167.0,3256.0,-9.0,-5.0,1.0
25.562768936157227,,,-52.0,214.0,3236.0,-9.0,-6.0,2.0
25.58312749862671,,,17.0,179.0,3109.0,-8.0,-7.0,5.0
25.603713274002075,,,-233.0,309.0,3122.0,-9.0,-6.0,6.0
25.624070644378662,,,-194.0,552.0,3461.0,-8.0,-7.0,3.0
25.64464259147644,,,61.0,777.0,3638.0,-4.0,-10.0,3.0
25.665062189102173,,,112.0,444.0,2639.0,-2.0,-10.0,9.0
25.685607194900513,,,-243.0,280.0,2097.0,-6.0,-5.0,11.0
25.70610284805298,,,-488.0,393.0,2094.0,-9.0,-2.0,10.0
25.726482152938843,,,-34.0,676.0,2735.0,-8.0,0.0,8.0
25.74699068069458,,,211.0,638.0,2956.0,-6.0,-1.0,4.0
25.767602682113647,,,354.0,434.0,3042.0,-3.0,-2.0,2.0
25.788135051727295,,,-33.0,32.0,3071.0,-1.0,-4.0,4.0
25.808428287506104,,,-323.0,69.0,3189.0,-3.0,-4.0,7.0
25.82911729812622,,,-191.0,321.0,3390.0,-1.0,-7.0,4.0
25.84946370124817,,,-178.0,148.0,3246.0,1.0,-9.0,2.0
25.869892120361328,,,-403.0,-86.0,2939.0,-1.0,-10.0,0.0
25.890360593795776,,,-550.0,60.0,2732.0,-7.0,-9.0,1.0
25.910606622695923,,,-242.0,388.0,2990.0,-5.0,-11.0,0.0
25.931084871292114,,,79.0,619.0,3273.0,-2.0,-16.0,2.0
25.95158100128174,,,560.0,955.0,2569.0,2.0,-12.0,14.0
25.97192096710205,,,24.0,1442.0,2342.0,0.0,-8.0,10.0
25.992405891418457,,,-609.0,1821.0,2307.0,-4.0,-11.0,-1.0
26.01288866996765,,,-1150.0,1679.0,2852.0,-4.0,-18.0,-22.0
26.03327226638794,,,-1079.0,1599.0,2784.0,-8.0,-21.0,-20.0
26.053842306137085,,,-870.0,1739.0,2221.0,-12.0,-20.0,-14.0
26.07446551322937,,,-648.0,2330.0,318.0,-19.0,-7.0,-23.0
26.094958066940308,,,-648.0,2570.0,-77.0,-20.0,-3.0,-38.0
26.115508556365967,,,-685.0,2357.0,-604.0,-26.0,1.0,-48.0
26.135921001434326,,,-794.0,2063.0,-923.0,-34.0,3.0,-49.0
26.15642809867859,,,-1055.0,2198.0,-799.0,-40.0,-2.0,-56.0
26.176863431930542,,,-1148.0,3163.0,-379.0,-50.0,-15.0,-72.0
26.19740056991577,,,-1111.0,3547.0,-273.0,-57.0,-17.0,-76.0
26.217910528182983,,,-917.0,3923.0,91.0,-65.0,-21.0,-87.0
26.23841094970703,,,405.0,4654.0,1644.0,-75.0,-32.0,-111.0
26.25876498222351,,,1282.0,4784.0,2358.0,-77.0,-35.0,-110.0
26.27915644645691,,,2051.0,5007.0,3110.0,-75.0,-36.0,-101.0
26.299543380737305,,,2848.0,5834.0,4714.0,-64.0,-40.0,-111.0
26.320076942443848,,,2815.0,5855.0,5397.0,-63.0,-45.0,-133.0
26.340478897094727,,,3537.0,4683.0,6740.0,-60.0,-61.0,-148.0
26.360992431640625,,,3953.0,3584.0,6795.0,-56.0,-61.0,-125.0
26.381504774093628,,,3799.0,2297.0,6130.0,-50.0,-56.0,-94.0
26.397886037826538,,,1645.0,-470.0,3059.0,-24.0,-36.0,-70.0
26.41835927963257,,,434.0,-1629.0,1566.0,-18.0,-35.0,-84.0
26.438835859298706,,,313.0,-2770.0,553.0,-18.0,-32.0,-94.0
26.459203004837036,,,731.0,-4399.0,539.0,-20.0,-4.0,-51.0
26.479806661605835,,,-510.0,-4181.0,922.0,-13.0,11.0,-42.0
26.500210285186768,,,-1944.0,-3125.0,1982.0,-2.0,9.0,-45.0
26.52069640159607,,,-2599.0,-1154.0,6292.0,15.0,2.0,-15.0
26.541128396987915,,,-2671.0,-591.0,7548.0,29.0,6.0,14.0
26.56172752380371,,,-2477.0,389.0,7056.0,35.0,7.0,33.0
26.582250833511353,,,-2962.0,3450.0,3152.0,31.0,14.0,11.0
26.60254406929016,,,-3839.0,4995.0,1242.0,19.0,15.0,-23.0
26.623074531555176,,,-4798.0,6035.0,-663.0,-10.0,21.0,-62.0
26.64345669746399,,,-5214.0,5689.0,-1439.0,-14.0,14.0,-53.0
26.66407823562622,,,-5512.0,5220.0,-3021.0,-12.0,4.0,-38.0
26.684579133987427,,,-5420.0,4515.0,-7747.0,-33.0,-6.0,-40.0
26.70501470565796,,,-4888.0,4506.0,-9505.0,-49.0,-7.0,-59.0
26.72547483444214,,,-3636.0,4973.0,-10107.0,-65.0,-8.0,-98.0
26.746022701263428,,,1365.0,5348.0,-5781.0,-92.0,-16.0,-131.0
26.766509532928467,,,3168.0,5247.0,-490.0,-86.0,-31.0,-126.0
26.78696036338806,,,3996.0,4017.0,4559.0,-67.0,-38.0,-115.0
26.807482957839966,,,2912.0,713.0,8991.0,-16.0,-33.0,-114.0
26.82790970802307,,,2247.0,-294.0,9659.0,-25.0,-50.0,-126.0
26.84838342666626,,,1915.0,-2902.0,10086.0,-31.0,-36.0,-52.0
26.868889331817627,,,1790.0,-3624.0,9616.0,-27.0,-22.0,6.0
26.88934850692749,,,1760.0,-3614.0,7586.0,-14.0,0.0,39.0
26.909790992736816,,,596.0,-3089.0,903.0,-7.0,20.0,29.0
26.930419445037842,,,-1079.0,-3560.0,-2639.0,-12.0,16.0,27.0
26.95082926750183,,,-2411.0,-4126.0,-5601.0,-21.0,18.0,37.0
26.971209287643433,,,-2659.0,-2967.0,-8407.0,-47.0,37.0,42.0
26.991716861724854,,,-3044.0,-3187.0,-8761.0,-56.0,50.0,35.0
27.01215696334839,,,-3277.0,-4961.0,-8230.0,-58.0,65.0,46.0
27.032652854919434,,,-3742.0,-4382.0,-2753.0,-47.0,82.0,72.0
27.053220748901367,,,-5055.0,-540.0,471.0,-44.0,76.0,27.0
27.073649168014526,,,-7279.0,1088.0,4548.0,-67.0,55.0,-56.0
27.09419059753418,,,-7171.0,-4587.0,5399.0,-26.0,46.0,-37.0
27.114551544189453,,,-6743.0,-4593.0,5513.0,-25.0,32.0,-1.0
27.13514494895935,,,-6887.0,-711.0,2156.0,-13.0,-11.0,49.0
27.1556179523468,,,-7265.0,1969.0,-1048.0,11.0,-30.0,101.0
27.176093101501465,,,-6434.0,4812.0,-5470.0,16.0,-29.0,154.0
27.19648551940918,,,-4123.0,10454.0,-10954.0,-101.0,-20.0,95.0
27.21699047088623,,,-2521.0,10933.0,-9713.0,-149.0,-19.0,35.0
27.23758840560913,,,-338.0,8107.0,-6465.0,-162.0,-3.0,-9.0
27.258087396621704,,,2887.0,-2155.0,2676.0,-86.0,11.0,-65.0
27.278434991836548,,,3593.0,-4728.0,5344.0,-73.0,6.0,7.0
27.2989022731781,,,4908.0,-5722.0,4864.0,-60.0,27.0,79.0
27.3194477558136,,,6268.0,-7686.0,2943.0,-33.0,83.0,89.0
27.33992290496826,,,4654.0,-8935.0,1063.0,-14.0,91.0,69.0
27.360382556915283,,,2340.0,-8742.0,-2981.0,16.0,85.0,120.0
27.380874395370483,,,1766.0,-6909.0,-2280.0,23.0,90.0,165.0
27.401396989822388,,,594.0,-4390.0,374.0,29.0,101.0,188.0
27.421851634979248,,,-4300.0,-3762.0,5703.0,49.0,72.0,67.0
27.44232749938965,,,-3540.0,-6032.0,5974.0,40.0,63.0,1.0
27.462815761566162,,,-2872.0,-7497.0,7979.0,46.0,56.0,15.0
27.479196071624756,,,-2631.0,-6787.0,9930.0,46.0,41.0,59.0
27.49962568283081,,,-1851.0,-5426.0,9027.0,48.0,42.0,82.0
27.52026128768921,,,-1021.0,-4820.0,6243.0,48.0,47.0,87.0
27.540593147277832,,,-377.0,-3556.0,1944.0,31.0,47.0,86.0
27.561240196228027,,,-1266.0,-2211.0,2084.0,18.0,42.0,71.0
27.58160638809204,,,-1652.0,-1849.0,2585.0,7.0,40.0,49.0
27.602269887924194,,,-538.0,-4377.0,2551.0,7.0,35.0,57.0
27.6230788230896,,,-234.0,-4887.0,1616.0,13.0,33.0,82.0
27.643470287322998,,,-759.0,-3676.0,-526.0,12.0,36.0,86.0
27.663737058639526,,,-781.0,-3022.0,-554.0,6.0,35.0,78.0
27.684412240982056,,,-590.0,-2903.0,-259.0,9.0,38.0,70.0
27.70463800430298,,,-269.0,-3898.0,-164.0,24.0,43.0,62.0
27.725385904312134,,,240.0,-4460.0,-634.0,29.0,43.0,63.0
27.745655059814453,,,944.0,-4750.0,-1121.0,30.0,46.0,70.0
27.766358852386475,,,1958.0,-4039.0,-1410.0,24.0,50.0,97.0
27.786699533462524,,,2383.0,-3560.0,-1625.0,20.0,55.0,111.0
27.811251163482666,,,1057.0,-4214.0,-1622.0,13.0,65.0,107.0
27.831740379333496,,,-816.0,-5041.0,-580.0,6.0,61.0,94.0
27.852339267730713,,,-2565.0,-6102.0,1136.0,-6.0,52.0,68.0
27.872857570648193,,,-1834.0,-7511.0,4164.0,-27.0,38.0,36.0
27.893368244171143,,,-501.0,-7586.0,5179.0,-35.0,40.0,44.0
27.913732767105103,,,505.0,-7324.0,5838.0,-44.0,41.0,56.0
27.934340715408325,,,1115.0,-6948.0,5972.0,-51.0,39.0,63.0
27.954636573791504,,,1363.0,-6467.0,5436.0,-54.0,35.0,69.0
27.97523593902588,,,1597.0,-4962.0,2861.0,-61.0,23.0,76.0
27.995663166046143,,,1512.0,-3736.0,1690.0,-68.0,15.0,83.0
28.016170024871826,,,1319.0,-1773.0,1444.0,-78.0,10.0,97.0
28.036434173583984,,,1489.0,2143.0,3707.0,-75.0,-7.0,108.0
28.05701732635498,,,1873.0,3496.0,4290.0,-61.0,-15.0,108.0
28.077396631240845,,,2041.0,4517.0,4515.0,-35.0,-5.0,91.0
28.09797167778015,,,1653.0,4863.0,5200.0,12.0,21.0,20.0
28.11853337287903,,,1569.0,4430.0,5668.0,11.0,20.0,-1.0
28.139065980911255,,,1639.0,4168.0,6118.0,7.0,5.0,1.0
28.15938425064087,,,1785.0,4328.0,4892.0,12.0,-12.0,48.0
28.17999577522278,,,864.0,4030.0,3727.0,19.0,-6.0,62.0
28.196297883987427,,,-593.0,3166.0,2594.0,19.0,4.0,63.0
28.21688222885132,,,-1763.0,-435.0,-122.0,-3.0,-2.0,24.0
28.237226724624634,,,-660.0,-2144.0,-2263.0,-13.0,-10.0,-1.0
28.25782060623169,,,2424.0,-4434.0,-8088.0,14.0,7.0,10.0
28.27849006652832,,,2197.0,-5627.0,-9483.0,20.0,17.0,29.0
28.29875946044922,,,710.0,-6340.0,-9339.0,11.0,12.0,22.0
28.31930136680603,,,-1616.0,-5585.0,-7328.0,-20.0,0.0,-10.0
28.339520931243896,,,-1388.0,-4966.0,-6609.0,-21.0,-2.0,-15.0
28.360204219818115,,,-924.0,-4395.0,-5787.0,-19.0,-3.0,-8.0
28.38048791885376,,,-826.0,-2642.0,-3490.0,-25.0,-10.0,-6.0
28.401169061660767,,,-437.0,-1152.0,-2208.0,-35.0,-18.0,-12.0
28.42159414291382,,,411.0,1362.0,-451.0,-36.0,-21.0,-13.0
28.441878080368042,,,4041.0,6793.0,4583.0,-27.0,-24.0,10.0
28.46233630180359,,,5215.0,8387.0,5937.0,-5.0,-30.0,24.0
28.482996702194214,,,5761.0,9053.0,7677.0,2.0,4.0,34.0
28.503405332565308,,,5750.0,8170.0,7294.0,10.0,-10.0,41.0
28.524128675460815,,,5027.0,6633.0,5411.0,18.0,-5.0,33.0
28.54458737373352,,,2928.0,3453.0,1835.0,27.0,9.0,22.0
28.56501793861389,,,2724.0,1920.0,193.0,30.0,6.0,28.0
28.585561513900757,,,2708.0,136.0,-1673.0,41.0,10.0,49.0
28.606022119522095,,,423.0,-4044.0,-3801.0,65.0,27.0,77.0
28.626474618911743,,,-1387.0,-5972.0,-2852.0,45.0,19.0,50.0
28.647027254104614,,,-2154.0,-6900.0,-2042.0,32.0,1.0,3.0
28.66760802268982,,,-1101.0,-7388.0,-2686.0,24.0,-18.0,-57.0
28.687877416610718,,,-680.0,-7352.0,-3472.0,19.0,-26.0,-71.0
28.70833420753479,,,-649.0,-6834.0,-4357.0,9.0,-32.0,-79.0
28.728919506072998,,,-1559.0,-4432.0,-5321.0,-22.0,-44.0,-96.0
28.74932312965393,,,-2086.0,-2610.0,-4801.0,-41.0,-51.0,-98.0
28.769803285598755,,,-1223.0,1726.0,-1571.0,-55.0,-59.0,-79.0
28.79012417793274,,,136.0,3600.0,427.0,-35.0,-48.0,-61.0
28.81072974205017,,,582.0,4684.0,2364.0,-23.0,-39.0,-42.0
28.831092834472656,,,1436.0,6775.0,4296.0,-37.0,-39.0,-44.0
28.851672410964966,,,3110.0,7677.0,4692.0,-29.0,-29.0,-51.0
28.87207794189453,,,4529.0,7835.0,4658.0,-13.0,-17.0,-52.0
28.892688512802124,,,4917.0,6812.0,3458.0,-8.0,5.0,-28.0
28.91304302215576,,,5109.0,6157.0,3050.0,-12.0,14.0,-13.0
28.93372678756714,,,5290.0,5260.0,2701.0,-9.0,22.0,12.0
28.954102993011475,,,4519.0,2475.0,1847.0,6.0,46.0,26.0
28.97454285621643,,,3838.0,1019.0,2040.0,4.0,52.0,16.0
28.99498414993286,,,3055.0,-944.0,3509.0,7.0,52.0,20.0
29.01558232307434,,,2878.0,-1822.0,3942.0,13.0,50.0,15.0
29.03611469268799,,,2994.0,-2662.0,3990.0,14.0,46.0,-3.0
29.05653190612793,,,3454.0,-3591.0,4095.0,7.0,40.0,-15.0
29.076833963394165,,,3685.0,-3731.0,4035.0,8.0,37.0,-2.0
29.09743046760559,,,3630.0,-3977.0,3605.0,10.0,34.0,11.0
29.11786460876465,,,2423.0,-4605.0,1652.0,15.0,17.0,26.0
29.138487100601196,,,1318.0,-4829.0,154.0,13.0,8.0,20.0
29.15874147415161,,,248.0,-5275.0,-1367.0,11.0,-2.0,8.0
29.17926049232483,,,-925.0,-6337.0,-3897.0,7.0,-22.0,-3.0
29.199763536453247,,,-1100.0,-6423.0,-4872.0,2.0,-33.0,-3.0
29.220221996307373,,,-1390.0,-6179.0,-5645.0,-3.0,-45.0,-4.0
29.240723609924316,,,-2589.0,-5414.0,-6267.0,-13.0,-52.0,-8.0
29.261104345321655,,,-3077.0,-5142.0,-6159.0,-17.0,-52.0,-16.0
29.277602434158325,,,-3583.0,-3925.0,-5547.0,-32.0,-57.0,-35.0
29.29805326461792,,,-3742.0,-2534.0,-5123.0,-38.0,-54.0,-43.0
29.318522930145264,,,-3804.0,-771.0,-4008.0,-41.0,-50.0,-55.0
29.338861227035522,,,-3203.0,3241.0,135.0,-48.0,-60.0,-78.0
29.359368562698364,,,-2372.0,5439.0,2364.0,-59.0,-63.0,-72.0
29.37977933883667,,,-456.0,7229.0,3998.0,-64.0,-61.0,-61.0
29.400253295898438,,,4428.0,8709.0,6811.0,-30.0,-36.0,-27.0
29.42062735557556,,,5118.0,8518.0,7670.0,-14.0,-23.0,-3.0
29.441330194473267,,,4660.0,8176.0,7738.0,-6.0,-17.0,22.0
29.461713314056396,,,3836.0,8479.0,6450.0,10.0,4.0,63.0
29.482236862182617,,,3994.0,8689.0,5626.0,16.0,11.0,73.0
29.50259280204773,,,3612.0,7438.0,3355.0,31.0,42.0,90.0
29.523107767105103,,,3039.0,5811.0,2458.0,38.0,47.0,102.0
29.543610334396362,,,2911.0,3719.0,1433.0,45.0,43.0,106.0
29.564087390899658,,,3117.0,141.0,-47.0,47.0,53.0,108.0
29.58442497253418,,,3067.0,-999.0,473.0,51.0,56.0,103.0
29.605045795440674,,,2965.0,-1762.0,1431.0,47.0,57.0,82.0
29.625436782836914,,,3641.0,-2035.0,3266.0,18.0,56.0,61.0
29.645980834960938,,,4166.0,-1818.0,3360.0,21.0,57.0,70.0
29.66650080680847,,,3971.0,-1753.0,3302.0,33.0,60.0,84.0
29.686925888061523,,,2543.0,-2593.0,2372.0,51.0,53.0,70.0
29.707403898239136,,,2308.0,-3096.0,1041.0,56.0,45.0,57.0
29.72793960571289,,,2262.0,-3257.0,-448.0,60.0,32.0,55.0
29.74862003326416,,,687.0,-3162.0,-3216.0,67.0,18.0,80.0
29.769051551818848,,,-960.0,-3486.0,-4320.0,63.0,15.0,86.0
29.789724826812744,,,-3196.0,-4420.0,-5772.0,41.0,13.0,63.0
29.81040620803833,,,-2918.0,-4543.0,-5919.0,33.0,11.0,41.0
29.830686807632446,,,-1971.0,-4420.0,-5851.0,32.0,10.0,22.0
29.851022720336914,,,18.0,-4140.0,-6302.0,19.0,7.0,-1.0
29.871562957763672,,,569.0,-3535.0,-6398.0,8.0,4.0,-10.0
29.89190649986267,,,678.0,-2438.0,-5601.0,-2.0,6.0,-25.0
29.912442922592163,,,661.0,-1412.0,-3229.0,-16.0,11.0,-51.0
29.932847499847412,,,633.0,-679.0,1095.0,-27.0,24.0,-82.0
29.953355073928833,,,1670.0,-445.0,6010.0,-29.0,45.0,-110.0
29.97391653060913,,,6535.0,-153.0,9647.0,-21.0,53.0,-103.0
29.994184017181396,,,8568.0,424.0,8001.0,-23.0,44.0,-66.0
30.014862060546875,,,7570.0,1258.0,7084.0,-38.0,36.0,6.0
30.035175323486328,,,6245.0,1692.0,7586.0,-42.0,39.0,24.0
30.055919885635376,,,6480.0,1967.0,7287.0,-40.0,42.0,41.0
30.07624650001526,,,6882.0,702.0,5637.0,-21.0,37.0,64.0
30.096765995025635,,,6577.0,-206.0,4580.0,-9.0,32.0,75.0
30.117128372192383,,,6182.0,-809.0,3339.0,0.0,27.0,83.0
30.13771080970764,,,4627.0,-1337.0,1212.0,6.0,21.0,85.0
30.158095121383667,,,3776.0,-1658.0,596.0,9.0,20.0,78.0
30.17884111404419,,,3318.0,-2042.0,109.0,14.0,21.0,67.0
30.199087858200073,,,3479.0,-2712.0,-541.0,22.0,20.0,44.0
30.219534397125244,,,3401.0,-3090.0,-710.0,22.0,17.0,37.0
30.240302562713623,,,3141.0,-3208.0,-741.0,19.0,14.0,33.0
30.26068377494812,,,2748.0,-2557.0,-472.0,13.0,12.0,21.0
30.281150102615356,,,2354.0,-2712.0,181.0,8.0,14.0,9.0
30.301620960235596,,,2687.0,-2241.0,1445.0,4.0,8.0,-10.0
30.3219895362854,,,3114.0,-1694.0,1577.0,7.0,5.0,-11.0
30.342689990997314,,,3055.0,-1530.0,1693.0,4.0,1.0,-13.0
30.363158226013184,,,2649.0,-640.0,1752.0,-8.0,-4.0,-16.0
30.383708000183105,,,2824.0,10.0,1750.0,-8.0,-3.0,-9.0
30.403963327407837,,,3026.0,13.0,1690.0,2.0,-2.0,9.0
30.424627780914307,,,2717.0,-504.0,1624.0,5.0,-4.0,9.0
30.444944381713867,,,2287.0,-940.0,1500.0,3.0,-8.0,3.0
30.46551752090454,,,1735.0,-733.0,1184.0,-1.0,-17.0,-12.0
30.48585081100464,,,1464.0,-325.0,1072.0,-1.0,-18.0,-15.0
30.506521224975586,,,1164.0,55.0,968.0,1.0,-16.0,-14.0
30.52667737007141,,,754.0,576.0,704.0,0.0,-13.0,-12.0
30.547248363494873,,,718.0,850.0,658.0,-1.0,-12.0,-11.0
30.567660331726074,,,812.0,1162.0,691.0,-1.0,-10.0,-7.0
30.588176250457764,,,878.0,1399.0,728.0,1.0,-8.0,0.0
30.608517169952393,,,715.0,1332.0,762.0,3.0,-5.0,7.0
30.629149913787842,,,404.0,1094.0,735.0,3.0,-4.0,10.0
30.649547815322876,,,147.0,1077.0,607.0,2.0,-1.0,2.0
30.670119285583496,,,131.0,1197.0,565.0,2.0,2.0,-1.0
30.690696716308594,,,110.0,1207.0,636.0,1.0,6.0,3.0
30.711047410964966,,,127.0,1188.0,660.0,2.0,9.0,6.0
30.73151159286499,,,163.0,1083.0,635.0,3.0,10.0,8.0
30.751940727233887,,,156.0,685.0,553.0,4.0,12.0,6.0
30.77246594429016,,,131.0,513.0,569.0,3.0,12.0,4.0
30.792996883392334,,,144.0,434.0,638.0,2.0,11.0,0.0
30.813392639160156,,,319.0,523.0,754.0,0.0,10.0,-2.0
30.833893060684204,,,364.0,590.0,759.0,0.0,10.0,0.0
30.8543541431427,,,327.0,624.0,831.0,0.0,11.0,1.0
30.874916076660156,,,357.0,599.0,980.0,-2.0,10.0,-2.0
30.895334482192993,,,530.0,624.0,1029.0,-2.0,9.0,-1.0
30.915793895721436,,,738.0,621.0,1104.0,0.0,9.0,3.0
30.936341762542725,,,705.0,594.0,1112.0,1.0,9.0,3.0
30.956799745559692,,,669.0,529.0,1105.0,1.0,9.0,3.0
30.977294206619263,,,829.0,434.0,1043.0,2.0,8.0,0.0
30.997551441192627,,,857.0,375.0,1056.0,3.0,7.0,0.0
31.018014430999756,,,824.0,352.0,1113.0,4.0,6.0,-1.0
31.038386583328247,,,841.0,393.0,1122.0,4.0,4.0,-1.0
31.058907508850098,,,857.0,435.0,1030.0,4.0,4.0,-1.0
31.075385332107544,,,852.0,463.0,961.0,5.0,4.0,-1.0
31.095850944519043,,,844.0,378.0,934.0,7.0,5.0,-2.0
31.116204500198364,,,865.0,291.0,971.0,6.0,4.0,-1.0
31.136707067489624,,,863.0,262.0,986.0,6.0,3.0,-1.0
31.157142639160156,,,795.0,234.0,970.0,6.0,2.0,-2.0
31.17777705192566,,,771.0,250.0,952.0,6.0,1.0,-3.0
31.19813895225525,,,649.0,311.0,866.0,5.0,0.0,-4.0
31.218746662139893,,,616.0,378.0,802.0,4.0,0.0,-4.0
31.239227771759033,,,589.0,425.0,773.0,4.0,1.0,-4.0
31.259766340255737,,,540.0,358.0,720.0,3.0,1.0,-4.0
31.280220985412598,,,536.0,345.0,731.0,2.0,0.0,-4.0
31.30068612098694,,,579.0,400.0,727.0,1.0,0.0,-4.0
31.32111358642578,,,577.0,419.0,669.0,1.0,0.0,-2.0
31.341672897338867,,,495.0,334.0,616.0,1.0,0.0,-1.0
31.36205506324768,,,434.0,256.0,576.0,0.0,1.0,-1.0
31.38253378868103,,,397.0,79.0,792.0,-1.0,2.0,-3.0
31.40296745300293,,,524.0,74.0,932.0,0.0,3.0,-2.0
31.423497676849365,,,691.0,-100.0,915.0,3.0,2.0,3.0
31.44402265548706,,,570.0,-318.0,832.0,3.0,1.0,2.0
31.464449405670166,,,396.0,-567.0,841.0,2.0,0.0,-1.0
31.484871864318848,,,264.0,-677.0,1247.0,-1.0,-2.0,-7.0
31.505341291427612,,,343.0,-547.0,1529.0,-1.0,-2.0,-6.0
31.525899410247803,,,435.0,-432.0,1759.0,1.0,-2.0,-3.0
31.546433448791504,,,443.0,-395.0,1859.0,4.0,-4.0,0.0
31.566755771636963,,,295.0,-478.0,1847.0,5.0,-6.0,-2.0
31.587316751480103,,,138.0,-573.0,1802.0,5.0,-8.0,-3.0
31.607681035995483,,,10.0,-728.0,1472.0,8.0,-9.0,-6.0
31.628316402435303,,,-50.0,-846.0,1250.0,9.0,-11.0,-10.0
31.648828268051147,,,-140.0,-934.0,976.0,7.0,-14.0,-18.0
31.669273614883423,,,-167.0,-529.0,732.0,3.0,-19.0,-28.0
31.689693450927734,,,-147.0,-169.0,793.0,4.0,-19.0,-28.0
31.71002960205078,,,-153.0,438.0,750.0,6.0,-18.0,-21.0
31.730507612228394,,,-139.0,542.0,547.0,5.0,-19.0,-20.0
31.75108027458191,,,-71.0,597.0,298.0,3.0,-20.0,-18.0
31.771601676940918,,,64.0,535.0,-6.0,3.0,-18.0,-9.0
31.79215931892395,,,-36.0,387.0,-77.0,3.0,-16.0,-3.0
31.812583208084106,,,-266.0,102.0,-81.0,2.0,-15.0,-1.0
31.83303999900818,,,-814.0,-496.0,118.0,1.0,-14.0,-8.0
31.853588581085205,,,-865.0,-629.0,306.0,0.0,-14.0,-17.0
31.873998641967773,,,-731.0,-685.0,522.0,0.0,-13.0,-26.0
31.89448308944702,,,-428.0,-665.0,806.0,1.0,-15.0,-31.0
31.915048837661743,,,-340.0,-491.0,793.0,0.0,-16.0,-31.0
31.935428142547607,,,-378.0,-78.0,765.0,-2.0,-17.0,-30.0
31.955909490585327,,,-455.0,0.0,839.0,-2.0,-15.0,-28.0
31.976397037506104,,,-373.0,-3.0,963.0,-2.0,-14.0,-24.0
31.996883869171143,,,55.0,-219.0,1086.0,2.0,-11.0,-12.0
32.0173978805542,,,112.0,-428.0,1015.0,6.0,-10.0,-7.0
32.03787350654602,,,172.0,-449.0,894.0,8.0,-11.0,-3.0
32.05838656425476,,,189.0,189.0,1161.0,16.0,-7.0,2.0
32.07878565788269,,,210.0,536.0,1586.0,22.0,-3.0,7.0
32.09936046600342,,,329.0,764.0,1863.0,25.0,-1.0,9.0
32.11977505683899,,,966.0,1445.0,1749.0,29.0,4.0,21.0
32.140300273895264,,,1285.0,1661.0,1426.0,36.0,10.0,37.0
32.156493186950684,,,1447.0,1501.0,792.0,45.0,16.0,49.0
32.17713665962219,,,1514.0,179.0,-918.0,54.0,29.0,49.0
32.19755458831787,,,1689.0,-546.0,-1657.0,57.0,32.0,43.0
32.218156576156616,,,2119.0,-451.0,-2522.0,46.0,35.0,30.0
32.23849606513977,,,2199.0,35.0,-2308.0,42.0,42.0,26.0
32.25908374786377,,,2363.0,-37.0,-1673.0,41.0,52.0,16.0
32.279566287994385,,,2173.0,-1292.0,1435.0,16.0,76.0,-23.0
32.30005407333374,,,1527.0,-1172.0,4448.0,-4.0,84.0,-24.0
32.32039976119995,,,1634.0,-262.0,7317.0,-11.0,90.0,2.0
32.3409218788147,,,2400.0,1113.0,7800.0,-7.0,104.0,88.0
32.36147713661194,,,1741.0,640.0,6442.0,-5.0,104.0,102.0
32.38196349143982,,,1031.0,-232.0,4828.0,-8.0,100.0,97.0
32.40232253074646,,,466.0,-1995.0,2404.0,-16.0,80.0,65.0
32.42291784286499,,,824.0,-2450.0,1667.0,-21.0,72.0,51.0
32.443294048309326,,,1696.0,-1274.0,840.0,-27.0,58.0,52.0
32.46396350860596,,,1087.0,-32.0,494.0,-24.0,43.0,60.0
32.48439359664917,,,-63.0,757.0,-195.0,-28.0,27.0,50.0
32.50493359565735,,,-2164.0,1657.0,230.0,-41.0,23.0,22.0
32.525333881378174,,,-2469.0,2366.0,1423.0,-31.0,24.0,23.0
32.54589653015137,,,-2284.0,3115.0,1838.0,-22.0,22.0,37.0
32.56628227233887,,,-1663.0,3147.0,469.0,-19.0,28.0,58.0
32.58685803413391,,,-1554.0,2307.0,-223.0,-18.0,27.0,61.0
32.607295513153076,,,-1587.0,1474.0,-744.0,-13.0,29.0,61.0
32.62821865081787,,,-727.0,1102.0,-2045.0,-5.0,31.0,19.0
32.64854979515076,,,161.0,1729.0,-2943.0,-4.0,28.0,1.0
32.669156074523926,,,951.0,2549.0,-3913.0,-10.0,25.0,-5.0
32.68941688537598,,,1575.0,3705.0,-4833.0,-27.0,30.0,27.0
32.71019005775452,,,1628.0,3974.0,-4908.0,-30.0,39.0,64.0
32.73068022727966,,,1563.0,3009.0,-4989.0,-25.0,58.0,123.0
32.75095319747925,,,1630.0,1259.0,-4469.0,-23.0,66.0,112.0
32.77129030227661,,,2108.0,-536.0,-3155.0,-25.0,71.0,71.0
32.79192280769348,,,3210.0,689.0,2698.0,-28.0,72.0,-18.0
32.812320947647095,,,4218.0,3063.0,5553.0,-8.0,76.0,-13.0
32.83688998222351,,,4626.0,4957.0,8685.0,-3.0,70.0,60.0
32.85728096961975,,,4087.0,4745.0,8925.0,2.0,71.0,89.0
32.87382388114929,,,3971.0,3901.0,8925.0,11.0,74.0,88.0
32.89420795440674,,,4953.0,2963.0,9233.0,35.0,69.0,54.0
32.91486358642578,,,5627.0,3149.0,8567.0,41.0,63.0,41.0
32.93525195121765,,,5970.0,3358.0,7398.0,41.0,54.0,42.0
32.9557409286499,,,5158.0,2178.0,3759.0,25.0,49.0,71.0
32.97608256340027,,,4906.0,611.0,2020.0,18.0,41.0,82.0
32.99686336517334,,,4809.0,-1022.0,280.0,7.0,34.0,75.0
33.01737666130066,,,4910.0,-2000.0,-2968.0,-20.0,24.0,41.0
33.037623167037964,,,5224.0,-1768.0,-3940.0,-23.0,23.0,19.0
33.05820894241333,,,5272.0,-190.0,-4354.0,-26.0,11.0,-19.0
33.07876229286194,,,4163.0,796.0,-3823.0,-30.0,4.0,-47.0
33.099236249923706,,,3015.0,1693.0,-2505.0,-42.0,-7.0,-64.0
33.11963725090027,,,13.0,3757.0,1874.0,-52.0,-28.0,-27.0
33.14018964767456,,,-1140.0,4677.0,4322.0,-41.0,-32.0,-2.0
33.16067934036255,,,-1676.0,5100.0,5748.0,-26.0,-36.0,22.0
33.1809983253479,,,-1831.0,4629.0,6131.0,-6.0,-37.0,24.0
33.201616287231445,,,-1932.0,4225.0,6196.0,0.0,-40.0,18.0
33.222190380096436,,,-2187.0,3839.0,6170.0,2.0,-44.0,18.0
33.242486238479614,,,-2710.0,3425.0,4901.0,2.0,-33.0,19.0
33.26295232772827,,,-2979.0,3288.0,3506.0,-3.0,-29.0,30.0
33.28347873687744,,,-3440.0,3523.0,1341.0,-5.0,-22.0,46.0
33.303943395614624,,,-3751.0,3641.0,-3473.0,-1.0,2.0,80.0
33.32451343536377,,,-3333.0,3153.0,-6051.0,13.0,14.0,100.0
33.344958543777466,,,-1774.0,1584.0,-12029.0,10.0,47.0,89.0
33.3653359413147,,,-1720.0,1244.0,-14071.0,-18.0,64.0,52.0
33.3859179019928,,,-2576.0,1573.0,-14263.0,-36.0,80.0,46.0
33.406291246414185,,,-3387.0,3275.0,-8740.0,-33.0,116.0,89.0
33.426804304122925,,,-2037.0,4131.0,-2934.0,-26.0,116.0,81.0
33.447378396987915,,,-1541.0,6414.0,2765.0,-22.0,116.0,49.0
33.46786332130432,,,-4224.0,10417.0,5377.0,-5.0,99.0,39.0
33.48823094367981,,,-5469.0,10112.0,7265.0,9.0,112.0,92.0
33.508663177490234,,,-5225.0,9121.0,8980.0,7.0,104.0,137.0
33.529279470443726,,,-2622.0,6327.0,8659.0,11.0,91.0,196.0
33.54972696304321,,,-228.0,5219.0,7147.0,17.0,77.0,186.0
33.57012939453125,,,3969.0,5343.0,2507.0,18.0,51.0,149.0
33.590683698654175,,,4743.0,5895.0,-592.0,16.0,42.0,133.0
33.61115336418152,,,5084.0,5971.0,-3826.0,15.0,29.0,114.0
33.631574630737305,,,6421.0,4700.0,-8757.0,-3.0,19.0,84.0
33.65208029747009,,,7090.0,3657.0,-9598.0,-21.0,22.0,64.0
33.67260932922363,,,7024.0,2848.0,-8978.0,-41.0,25.0,30.0
33.69301629066467,,,3427.0,1718.0,-4112.0,-72.0,31.0,-48.0
33.71358847618103,,,20.0,1330.0,268.0,-84.0,30.0,-81.0
33.733927488327026,,,-4793.0,1882.0,3711.0,-88.0,19.0,-82.0
33.75449776649475,,,-10188.0,4185.0,4950.0,-43.0,31.0,13.0
33.774999141693115,,,-10004.0,4708.0,4798.0,-28.0,37.0,47.0
33.795647859573364,,,-9086.0,4862.0,4338.0,-18.0,38.0,72.0
33.81593179702759,,,-6001.0,4377.0,3432.0,-8.0,26.0,84.0
33.83672618865967,,,-4939.0,4054.0,2605.0,-7.0,20.0,70.0
33.85691452026367,,,-6101.0,3665.0,38.0,2.0,16.0,68.0
33.877341985702515,,,-6738.0,3110.0,-862.0,7.0,14.0,86.0
33.89772629737854,,,-6820.0,2238.0,-1770.0,16.0,13.0,111.0
33.91823744773865,,,-5654.0,939.0,-4594.0,41.0,17.0,136.0
33.93880867958069,,,-4490.0,814.0,-6104.0,51.0,18.0,137.0
33.955276012420654,,,-3044.0,998.0,-6980.0,56.0,22.0,132.0
33.9757399559021,,,-907.0,2081.0,-4244.0,48.0,37.0,104.0
33.99598479270935,,,-1290.0,2642.0,-1089.0,46.0,38.0,87.0
34.01665925979614,,,-2500.0,3299.0,1717.0,51.0,36.0,76.0
34.036757707595825,,,-4380.0,5279.0,4517.0,63.0,37.0,79.0
34.057435274124146,,,-4237.0,5599.0,5504.0,68.0,42.0,76.0
34.07781147956848,,,-3093.0,5404.0,6176.0,62.0,49.0,49.0
34.09868597984314,,,-2883.0,5325.0,5939.0,52.0,51.0,45.0
34.119046449661255,,,-3009.0,5375.0,5629.0,44.0,55.0,51.0
34.13940072059631,,,-3040.0,5624.0,4733.0,34.0,63.0,66.0
34.159924030303955,,,-2983.0,5620.0,3799.0,28.0,66.0,60.0
34.18051719665527,,,-3089.0,5132.0,2472.0,19.0,66.0,54.0
34.20094132423401,,,-3120.0,3699.0,-629.0,11.0,67.0,82.0
34.22125315666199,,,-2601.0,3784.0,-2090.0,10.0,59.0,98.0
34.24179792404175,,,-1777.0,4213.0,-3588.0,8.0,53.0,97.0
34.262322664260864,,,-752.0,5355.0,-5844.0,-7.0,50.0,54.0
34.28294587135315,,,-1015.0,5377.0,-6226.0,-18.0,48.0,24.0
34.30336546897888,,,-1674.0,5085.0,-6217.0,-26.0,45.0,2.0
34.323763370513916,,,-3314.0,4547.0,-4228.0,-31.0,38.0,-13.0
34.344369888305664,,,-3537.0,3881.0,-2107.0,-34.0,34.0,-10.0
34.36468029022217,,,-4978.0,1116.0,3738.0,-49.0,21.0,-9.0
34.3850884437561,,,-7223.0,-601.0,5343.0,-46.0,15.0,3.0
34.4057559967041,,,-8946.0,-1212.0,6248.0,-37.0,10.0,29.0
34.42619752883911,,,-9063.0,-958.0,7858.0,-23.0,-13.0,73.0
34.44648265838623,,,-8429.0,-297.0,8088.0,-23.0,-28.0,90.0
34.46701264381409,,,-7728.0,-472.0,7826.0,-24.0,-36.0,112.0
34.48766469955444,,,-6118.0,-2602.0,6611.0,-20.0,-45.0,145.0
34.508280992507935,,,-5283.0,-3215.0,5505.0,-21.0,-48.0,152.0
34.528770446777344,,,-4540.0,-3273.0,4120.0,-20.0,-51.0,152.0
34.549192905426025,,,-3262.0,-3608.0,12.0,-5.0,-67.0,139.0
34.56953454017639,,,-2533.0,-3770.0,-2511.0,7.0,-69.0,132.0
34.59019446372986,,,-1167.0,-2734.0,-5925.0,21.0,-57.0,111.0
34.61046648025513,,,-453.0,-2408.0,-6514.0,26.0,-47.0,99.0
34.63102173805237,,,28.0,-2640.0,-6906.0,34.0,-36.0,84.0
34.65144610404968,,,65.0,-4008.0,-8315.0,51.0,-12.0,70.0
34.671936988830566,,,-510.0,-4441.0,-8595.0,54.0,1.0,85.0
34.69242191314697,,,-1344.0,-4279.0,-7456.0,55.0,7.0,100.0
34.71291732788086,,,-2300.0,-2633.0,-455.0,60.0,15.0,71.0
34.73329544067383,,,-2333.0,-2078.0,4130.0,59.0,19.0,44.0
34.754056453704834,,,-3023.0,-2719.0,6657.0,58.0,21.0,37.0
34.77450728416443,,,-4721.0,-3550.0,9258.0,63.0,47.0,71.0
34.79478645324707,,,-4964.0,-3464.0,9993.0,60.0,54.0,67.0
34.81525111198425,,,-4920.0,-3511.0,9970.0,60.0,59.0,51.0
34.83588933944702,,,-4456.0,-3585.0,8881.0,61.0,74.0,30.0
34.856178760528564,,,-4027.0,-3402.0,7851.0,60.0,81.0,42.0
34.876774311065674,,,-3142.0,-2623.0,4607.0,60.0,80.0,57.0
34.897156715393066,,,-2709.0,-1899.0,2228.0,64.0,76.0,59.0
34.91755485534668,,,-2553.0,-915.0,-218.0,69.0,72.0,67.0
34.93788504600525,,,-3904.0,1314.0,-3708.0,65.0,53.0,56.0
34.958667516708374,,,-4416.0,2247.0,-4976.0,55.0,50.0,28.0
34.97904634475708,,,-4361.0,2815.0,-6157.0,45.0,58.0,-1.0
34.99964237213135,,,-4098.0,2313.0,-7494.0,31.0,65.0,-30.0
35.020058393478394,,,-3964.0,1662.0,-8128.0,24.0,68.0,-32.0
35.036399126052856,,,-3887.0,976.0,-8723.0,14.0,73.0,-35.0
35.05677795410156,,,-4253.0,601.0,-8161.0,-14.0,82.0,-51.0
35.077244997024536,,,-4820.0,1002.0,-5716.0,-33.0,81.0,-71.0
35.097670793533325,,,-4282.0,-100.0,2712.0,-74.0,73.0,-144.0
35.11822700500488,,,-2529.0,-3365.0,6002.0,-67.0,72.0,-165.0
35.13838529586792,,,-2099.0,-6083.0,8094.0,-63.0,69.0,-162.0
35.15906095504761,,,-1831.0,-10003.0,10272.0,-64.0,46.0,-86.0
35.17939376831055,,,-1601.0,-10984.0,10765.0,-46.0,47.0,-36.0
35.19995450973511,,,-1705.0,-10727.0,10695.0,-29.0,46.0,13.0
35.22047758102417,,,-2976.0,-7579.0,9067.0,-7.0,28.0,59.0
35.24125576019287,,,-3208.0,-5785.0,7382.0,1.0,19.0,66.0
35.26173782348633,,,-3332.0,-3919.0,5517.0,6.0,15.0,65.0
35.282095432281494,,,-3537.0,-2108.0,3443.0,4.0,14.0,58.0
35.302629709243774,,,1256.0,-3824.0,3912.0,31.0,31.0,144.0
35.322959661483765,,,624.0,-3701.0,2716.0,28.0,25.0,145.0
35.347750663757324,,,-19.0,-3444.0,1682.0,30.0,18.0,153.0
35.36826157569885,,,-993.0,-3250.0,629.0,39.0,10.0,162.0
35.38849210739136,,,-2542.0,-3226.0,-2915.0,47.0,14.0,126.0
35.40914297103882,,,-2120.0,-3656.0,-4850.0,41.0,12.0,98.0
35.42984175682068,,,-445.0,-3868.0,-7604.0,58.0,1.0,105.0
35.45011520385742,,,-526.0,-3922.0,-7776.0,73.0,6.0,118.0
35.470730781555176,,,-1124.0,-4535.0,-7530.0,82.0,8.0,108.0
35.49116277694702,,,-136.0,-6356.0,-8082.0,80.0,0.0,40.0
35.51149892807007,,,1299.0,-6400.0,-7900.0,70.0,-7.0,22.0
35.53217840194702,,,2466.0,-6089.0,-6345.0,55.0,-10.0,22.0
35.55261421203613,,,3828.0,-4912.0,1249.0,30.0,4.0,28.0
35.573108196258545,,,5182.0,-3714.0,4876.0,30.0,7.0,37.0
35.593517541885376,,,6398.0,-2802.0,6720.0,31.0,13.0,65.0
35.6139178276062,,,5998.0,-2444.0,9249.0,14.0,26.0,99.0
35.63450217247009,,,5034.0,-2877.0,9939.0,4.0,29.0,92.0
35.65487575531006,,,4397.0,-3748.0,10160.0,-5.0,37.0,81.0
35.67527151107788,,,4383.0,-5912.0,9491.0,-11.0,34.0,71.0
35.69569158554077,,,4584.0,-6720.0,8740.0,-8.0,30.0,71.0
35.716313123703,,,4890.0,-7699.0,6652.0,-6.0,10.0,75.0
35.73659539222717,,,4805.0,-8228.0,5641.0,-9.0,-8.0,80.0
35.75736999511719,,,4521.0,-8570.0,4418.0,-16.0,-28.0,88.0
35.77773094177246,,,3210.0,-7763.0,1205.0,-36.0,-50.0,101.0
35.79825711250305,,,2363.0,-6747.0,-83.0,-51.0,-54.0,97.0
35.81851935386658,,,1562.0,-5445.0,-661.0,-64.0,-59.0,93.0
35.83907389640808,,,-651.0,-2760.0,383.0,-80.0,-72.0,67.0
35.8595027923584,,,-1644.0,-1445.0,1216.0,-87.0,-77.0,37.0
35.87987804412842,,,-2249.0,-104.0,1833.0,-97.0,-76.0,4.0
35.90046763420105,,,-2190.0,3202.0,2916.0,-124.0,-73.0,-6.0
35.92092180252075,,,-2072.0,4756.0,3403.0,-126.0,-69.0,-6.0
35.941322565078735,,,-2602.0,5603.0,3875.0,-112.0,-52.0,-39.0
35.96193265914917,,,-2582.0,5531.0,3853.0,-92.0,-40.0,-43.0
35.98254919052124,,,-2082.0,5429.0,3758.0,-61.0,-29.0,-27.0
35.99895191192627,,,-209.0,4590.0,2844.0,-18.0,0.0,1.0
36.01940941810608,,,435.0,4253.0,2099.0,-15.0,8.0,12.0
36.04002285003662,,,948.0,4214.0,1359.0,-21.0,6.0,1.0
36.060359954833984,,,2565.0,4696.0,-238.0,-23.0,25.0,-66.0
36.08100938796997,,,3790.0,4469.0,-710.0,-19.0,27.0,-75.0
36.10144758224487,,,5379.0,3712.0,-1356.0,-18.0,19.0,-70.0
36.12189960479736,,,8239.0,979.0,-1894.0,-8.0,8.0,3.0
36.1423077583313,,,7959.0,-356.0,-741.0,10.0,15.0,48.0
36.16293382644653,,,6525.0,-930.0,1902.0,20.0,13.0,66.0
36.18336462974548,,,4121.0,-570.0,6517.0,8.0,-6.0,67.0
36.20391869544983,,,3723.0,-618.0,7415.0,3.0,-13.0,56.0
36.22435426712036,,,2808.0,-673.0,7595.0,-4.0,-18.0,33.0
36.24491262435913,,,2287.0,-497.0,7326.0,-10.0,-18.0,24.0
36.265411376953125,,,2225.0,-351.0,6802.0,-15.0,-22.0,22.0
36.285836935043335,,,2820.0,-672.0,4960.0,-10.0,-29.0,43.0
36.30623984336853,,,2829.0,-1119.0,3989.0,-10.0,-32.0,58.0
36.32672309875488,,,2599.0,-1678.0,3176.0,-14.0,-36.0,68.0
36.34703850746155,,,1724.0,-2555.0,1767.0,-33.0,-54.0,62.0
36.36754035949707,,,1523.0,-2632.0,994.0,-42.0,-63.0,52.0
36.387917280197144,,,1402.0,-2601.0,337.0,-47.0,-70.0,46.0
36.40854501724243,,,307.0,-1800.0,-608.0,-57.0,-83.0,27.0
36.42897343635559,,,-617.0,-448.0,-589.0,-68.0,-90.0,17.0
36.449363708496094,,,-1279.0,2516.0,-931.0,-81.0,-100.0,-12.0
36.46967387199402,,,-891.0,3102.0,-1012.0,-72.0,-89.0,-30.0
36.49027132987976,,,-950.0,4179.0,-214.0,-59.0,-66.0,-45.0
36.510809659957886,,,-1456.0,10008.0,1235.0,-21.0,-19.0,-68.0
36.53122162818909,,,156.0,12256.0,1486.0,-3.0,-17.0,-67.0
36.551602363586426,,,2047.0,12000.0,1159.0,6.0,-22.0,-58.0
36.57220792770386,,,3447.0,10891.0,709.0,5.0,6.0,-35.0
36.59266448020935,,,4297.0,10181.0,2426.0,26.0,53.0,48.0
36.61321473121643,,,3608.0,9274.0,2924.0,40.0,58.0,68.0
36.63366103172302,,,1652.0,6703.0,3585.0,43.0,52.0,49.0
36.654128074645996,,,1067.0,5506.0,3804.0,42.0,54.0,41.0
36.67452144622803,,,862.0,4493.0,4098.0,44.0,57.0,28.0
36.695098638534546,,,972.0,3695.0,3911.0,50.0,59.0,19.0
36.7155179977417,,,1218.0,3080.0,3076.0,56.0,65.0,18.0
36.736039876937866,,,1249.0,2087.0,1624.0,54.0,64.0,12.0
36.756470680236816,,,995.0,1587.0,1817.0,47.0,54.0,6.0
36.7770209312439,,,727.0,903.0,2319.0,41.0,38.0,1.0
36.7974317073822,,,384.0,-70.0,2454.0,34.0,31.0,6.0
36.81788945198059,,,217.0,-333.0,2464.0,35.0,35.0,0.0
36.838496685028076,,,290.0,-321.0,2446.0,39.0,38.0,-8.0
36.85894799232483,,,443.0,105.0,1885.0,43.0,27.0,-21.0
36.87913131713867,,,400.0,389.0,1503.0,37.0,28.0,-25.0
36.89962434768677,,,451.0,635.0,1596.0,34.0,30.0,-21.0
36.920172691345215,,,570.0,215.0,2701.0,31.0,22.0,4.0
36.94065761566162,,,616.0,-345.0,3036.0,27.0,17.0,7.0
36.96115279197693,,,576.0,-869.0,3372.0,26.0,10.0,-17.0
36.98159885406494,,,564.0,-598.0,3294.0,28.0,8.0,-28.0
37.00211691856384,,,641.0,-397.0,3239.0,29.0,4.0,-29.0
37.022637367248535,,,810.0,-638.0,3436.0,25.0,-8.0,-23.0
37.04305100440979,,,641.0,-759.0,3296.0,23.0,-9.0,-23.0
37.06351447105408,,,336.0,-848.0,3060.0,24.0,-7.0,-28.0
37.084030866622925,,,196.0,-910.0,2657.0,27.0,-15.0,-44.0
37.10455822944641,,,445.0,-875.0,2410.0,25.0,-18.0,-44.0
37.12496089935303,,,616.0,-723.0,2270.0,22.0,-19.0,-37.0
37.145496129989624,,,497.0,-674.0,2333.0,18.0,-19.0,-25.0
37.16589379310608,,,392.0,-785.0,2247.0,18.0,-20.0,-25.0
37.186367988586426,,,204.0,-972.0,2111.0,15.0,-16.0,-34.0
37.20691704750061,,,227.0,-1034.0,2332.0,11.0,-12.0,-36.0
37.22736215591431,,,461.0,-1060.0,2649.0,8.0,-12.0,-32.0
37.2478814125061,,,900.0,-1034.0,3053.0,15.0,-18.0,-15.0
37.26825976371765,,,774.0,-1032.0,2925.0,18.0,-20.0,-12.0
37.28876304626465,,,619.0,-998.0,2594.0,18.0,-20.0,-14.0
37.30922603607178,,,310.0,-1016.0,2427.0,15.0,-14.0,-21.0
37.32569122314453,,,185.0,-979.0,2603.0,13.0,-12.0,-19.0
37.34608721733093,,,86.0,-914.0,2756.0,13.0,-8.0,-13.0
37.36663460731506,,,-352.0,-843.0,2807.0,14.0,-2.0,-3.0
37.387014865875244,,,-373.0,-879.0,2797.0,13.0,-2.0,-3.0
37.407496213912964,,,-220.0,-952.0,2782.0,14.0,-3.0,-6.0
37.427961111068726,,,84.0,-1026.0,2730.0,13.0,-4.0,-11.0
37.44855809211731,,,152.0,-870.0,2713.0,10.0,-3.0,-8.0
37.468995094299316,,,144.0,-511.0,2813.0,4.0,0.0,-1.0
37.489487409591675,,,142.0,-507.0,2798.0,3.0,0.0,-1.0
37.509907722473145,,,225.0,-541.0,2732.0,4.0,0.0,-3.0
37.530479431152344,,,367.0,-536.0,2718.0,4.0,0.0,-4.0
37.55090641975403,,,520.0,-519.0,2739.0,5.0,0.0,-4.0
37.57564926147461,,,589.0,-552.0,2743.0,5.0,-2.0,-2.0
37.595969438552856,,,505.0,-637.0,2738.0,6.0,-4.0,-2.0
37.616487979888916,,,358.0,-638.0,2832.0,6.0,-6.0,-2.0
37.63683319091797,,,329.0,-235.0,2677.0,6.0,-7.0,4.0
37.65751028060913,,,283.0,-151.0,2437.0,6.0,-4.0,1.0
37.67373061180115,,,260.0,-252.0,2345.0,5.0,-2.0,-4.0
37.694252729415894,,,292.0,-403.0,2409.0,4.0,-3.0,-6.0
37.71473240852356,,,359.0,-310.0,2407.0,4.0,-3.0,-4.0
37.73528075218201,,,420.0,-187.0,2399.0,3.0,-2.0,-1.0
37.75572156906128,,,400.0,-116.0,2422.0,3.0,-2.0,0.0
37.776216983795166,,,241.0,-276.0,2460.0,2.0,-1.0,-2.0
37.796616554260254,,,150.0,-373.0,2558.0,2.0,0.0,-4.0
37.81717848777771,,,96.0,-403.0,2707.0,2.0,1.0,-3.0
37.83759880065918,,,77.0,-371.0,2709.0,2.0,1.0,-2.0
37.86224412918091,,,247.0,-337.0,2681.0,3.0,-2.0,-2.0
37.88262462615967,,,209.0,-414.0,2679.0,5.0,-4.0,-2.0
37.90320634841919,,,74.0,-561.0,2603.0,5.0,-4.0,-1.0
37.92360472679138,,,-232.0,-628.0,2560.0,3.0,2.0,0.0
37.944151401519775,,,-320.0,-574.0,2759.0,4.0,4.0,-2.0
37.964574337005615,,,-195.0,-565.0,2923.0,5.0,2.0,-5.0
37.985196113586426,,,359.0,-584.0,2795.0,10.0,-2.0,0.0
38.00553274154663,,,403.0,-554.0,2647.0,12.0,-2.0,3.0
38.0261607170105,,,-162.0,-618.0,2593.0,15.0,4.0,1.0
38.04690718650818,,,-392.0,-590.0,2661.0,17.0,7.0,1.0
38.06749606132507,,,-380.0,-476.0,2853.0,19.0,9.0,3.0
38.087987422943115,,,-54.0,-183.0,3528.0,19.0,6.0,20.0
38.108498334884644,,,-8.0,-131.0,3545.0,17.0,7.0,35.0
38.12892723083496,,,-169.0,-123.0,3422.0,15.0,10.0,45.0
38.14939093589783,,,-752.0,-194.0,3058.0,22.0,8.0,42.0
38.16993284225464,,,-764.0,-221.0,2742.0,27.0,7.0,41.0
38.190423250198364,,,-835.0,-285.0,2630.0,30.0,7.0,49.0
38.21069264411926,,,-1011.0,-215.0,2541.0,40.0,12.0,64.0
38.231268644332886,,,-1099.0,-245.0,2531.0,50.0,11.0,61.0
38.25175428390503,,,-722.0,-661.0,2178.0,63.0,6.0,54.0
38.272345542907715,,,-473.0,-657.0,1866.0,67.0,7.0,62.0
38.29260778427124,,,-409.0,-510.0,1988.0,71.0,12.0,64.0
38.31328082084656,,,-819.0,-394.0,3240.0,75.0,-4.0,67.0
38.33359408378601,,,-872.0,-76.0,2707.0,75.0,0.0,73.0
38.354121923446655,,,-907.0,90.0,2541.0,76.0,9.0,73.0
38.37448596954346,,,-1396.0,109.0,3780.0,77.0,4.0,71.0
38.39090657234192,,,-1774.0,220.0,4455.0,74.0,2.0,70.0
38.41128349304199,,,-1805.0,282.0,4713.0,68.0,7.0,71.0
38.43182682991028,,,-1197.0,-592.0,5304.0,58.0,13.0,76.0
38.45224905014038,,,-542.0,-964.0,5217.0,52.0,4.0,69.0
38.47278451919556,,,309.0,-1076.0,4712.0,49.0,-10.0,63.0
38.49334144592285,,,1878.0,-1400.0,3371.0,36.0,-31.0,39.0
38.51358652114868,,,1986.0,-1198.0,2970.0,26.0,-35.0,22.0
38.53439974784851,,,240.0,-465.0,2224.0,9.0,-25.0,-1.0
38.554821491241455,,,-837.0,-100.0,1794.0,8.0,-15.0,-15.0
38.57549738883972,,,-1450.0,269.0,1717.0,11.0,-5.0,-31.0
38.59584355354309,,,-1212.0,1594.0,2398.0,11.0,1.0,-25.0
38.61625933647156,,,-537.0,2170.0,2630.0,8.0,12.0,-14.0
38.636794090270996,,,75.0,2300.0,3193.0,4.0,17.0,-10.0
38.65725660324097,,,92.0,2101.0,4622.0,-11.0,7.0,-21.0
38.67757701873779,,,-6.0,2529.0,4702.0,-15.0,0.0,-20.0
38.69841694831848,,,-36.0,3263.0,4296.0,-12.0,-4.0,-10.0
38.718565464019775,,,445.0,4349.0,2420.0,3.0,-8.0,20.0
38.75947070121765,,,810.0,4241.0,1464.0,11.0,-11.0,33.0
38.775872468948364,,,1489.0,3941.0,537.0,14.0,-13.0,39.0
38.79627799987793,,,2541.0,3902.0,-1134.0,7.0,-13.0,56.0
38.81678032875061,,,2320.0,3634.0,-1805.0,8.0,-7.0,68.0
38.837167739868164,,,373.0,1030.0,138.0,36.0,34.0,46.0
38.85767841339111,,,-49.0,-344.0,3003.0,43.0,37.0,7.0
38.878103256225586,,,895.0,-199.0,5030.0,39.0,36.0,-17.0
38.898946046829224,,,1906.0,1172.0,7128.0,29.0,17.0,-25.0
38.91934108734131,,,2115.0,1087.0,7652.0,35.0,4.0,-33.0
38.93993616104126,,,2998.0,-497.0,6350.0,24.0,7.0,-68.0
38.96028470993042,,,3142.0,-565.0,5798.0,15.0,9.0,-74.0
38.980934143066406,,,2971.0,-141.0,5557.0,9.0,5.0,-70.0
39.001174211502075,,,3329.0,1072.0,4318.0,-2.0,5.0,-42.0
39.02190113067627,,,3491.0,1700.0,3801.0,-2.0,3.0,-36.0
39.04219603538513,,,3016.0,2342.0,3754.0,-1.0,0.0,-36.0
39.06271314620972,,,1907.0,3595.0,3510.0,9.0,2.0,-21.0
39.08304786682129,,,1811.0,3759.0,2922.0,14.0,7.0,-7.0
39.10364890098572,,,1794.0,3578.0,2358.0,17.0,13.0,-1.0
39.12404274940491,,,1436.0,3325.0,2016.0,24.0,19.0,-4.0
39.144627809524536,,,1410.0,3131.0,1668.0,24.0,23.0,2.0
39.16507649421692,,,1432.0,2085.0,1616.0,24.0,36.0,22.0
39.185445070266724,,,1244.0,1334.0,2271.0,21.0,36.0,18.0
39.20601201057434,,,1077.0,931.0,3265.0,19.0,26.0,10.0
39.226611852645874,,,656.0,1177.0,4058.0,28.0,13.0,8.0
39.24692153930664,,,426.0,887.0,3882.0,33.0,9.0,13.0
39.26763725280762,,,387.0,319.0,3305.0,36.0,5.0,13.0
39.28795003890991,,,771.0,-566.0,1770.0,30.0,4.0,-10.0
39.308534383773804,,,535.0,-715.0,1550.0,28.0,7.0,-26.0
39.32897424697876,,,0.0,-840.0,1765.0,23.0,8.0,-36.0
39.34935545921326,,,-1018.0,586.0,987.0,12.0,19.0,-4.0
39.36980056762695,,,-824.0,418.0,632.0,11.0,27.0,-6.0
39.39029812812805,,,-515.0,-536.0,666.0,4.0,27.0,-18.0
39.410423278808594,,,-955.0,-1075.0,1824.0,-8.0,24.0,-40.0
39.430988073349,,,-1396.0,-488.0,2735.0,-7.0,20.0,-32.0
39.451385736465454,,,-1079.0,16.0,3563.0,5.0,15.0,-12.0
39.47192168235779,,,-554.0,-277.0,3467.0,7.0,10.0,-14.0
39.492348432540894,,,-86.0,-652.0,3161.0,5.0,8.0,-18.0
39.51279401779175,,,521.0,-1284.0,2641.0,-3.0,2.0,-20.0
39.53349781036377,,,900.0,-1740.0,2699.0,-6.0,-5.0,-23.0
39.553964138031006,,,1171.0,-2143.0,2837.0,-9.0,-10.0,-28.0
39.574312925338745,,,1286.0,-1260.0,3151.0,-4.0,-16.0,-46.0
39.59481739997864,,,1341.0,-426.0,3094.0,2.0,-18.0,-46.0
39.615214347839355,,,1381.0,98.0,2510.0,0.0,-17.0,-35.0
39.63577628135681,,,1693.0,99.0,1703.0,-9.0,-10.0,-27.0
39.65654373168945,,,1630.0,-51.0,2054.0,-11.0,-11.0,-27.0
39.67694854736328,,,1270.0,740.0,2822.0,-7.0,-8.0,-12.0
39.697431325912476,,,1255.0,691.0,3178.0,-3.0,-5.0,1.0
39.71793580055237,,,1332.0,112.0,3256.0,-4.0,-5.0,5.0
39.73846197128296,,,1182.0,-114.0,3427.0,-4.0,-6.0,-5.0
39.7585666179657,,,1106.0,456.0,3565.0,-1.0,-9.0,-1.0
39.77912449836731,,,1116.0,459.0,3409.0,0.0,-11.0,10.0
39.79965114593506,,,1050.0,-1059.0,2653.0,-14.0,-11.0,12.0
39.82005834579468,,,612.0,-1176.0,2451.0,-19.0,-11.0,5.0
39.84061360359192,,,124.0,-861.0,2426.0,-19.0,-9.0,-8.0
39.85699653625488,,,-227.0,596.0,3287.0,-14.0,-13.0,-20.0
39.87736248970032,,,20.0,1679.0,3626.0,-7.0,-12.0,-12.0
39.898000717163086,,,136.0,2087.0,3539.0,0.0,-6.0,1.0
39.91861534118652,,,120.0,1450.0,2657.0,4.0,8.0,14.0
39.939003229141235,,,277.0,798.0,2452.0,4.0,11.0,11.0
39.95939636230469,,,389.0,442.0,2279.0,3.0,10.0,0.0
39.98001194000244,,,170.0,589.0,2466.0,5.0,14.0,-1.0
40.00045990943909,,,-83.0,388.0,2537.0,5.0,17.0,9.0
40.02097272872925,,,23.0,-477.0,1853.0,1.0,21.0,14.0
40.04154062271118,,,186.0,-981.0,1991.0,-1.0,17.0,-3.0
40.06234884262085,,,186.0,-1295.0,2569.0,-3.0,7.0,-12.0
40.08255934715271,,,-382.0,-353.0,3451.0,-1.0,-3.0,-13.0
40.10309457778931,,,-653.0,268.0,3496.0,4.0,-5.0,-9.0
40.12355828285217,,,-752.0,469.0,2971.0,6.0,-2.0,1.0
40.14405608177185,,,-665.0,-405.0,1585.0,3.0,-2.0,-1.0
40.1644766330719,,,-647.0,-1073.0,1232.0,-1.0,-1.0,-9.0
40.185051679611206,,,-386.0,-1818.0,2287.0,-9.0,-7.0,-23.0
40.20571827888489,,,-705.0,-1196.0,2809.0,-7.0,-12.0,-12.0
40.22604846954346,,,-1127.0,-570.0,2573.0,6.0,-12.0,4.0
40.24669146537781,,,-318.0,-2084.0,1879.0,36.0,-21.0,-12.0
40.266995906829834,,,34.0,-3150.0,2221.0,40.0,-38.0,-35.0
40.28728270530701,,,-1.0,-3501.0,2450.0,39.0,-60.0,-48.0
40.307902574539185,,,-345.0,-2868.0,1413.0,28.0,-78.0,-52.0
40.328094482421875,,,-394.0,-2848.0,743.0,16.0,-82.0,-58.0
40.34863042831421,,,-413.0,-2694.0,265.0,0.0,-83.0,-69.0
40.37337040901184,,,-278.0,-2227.0,204.0,-14.0,-83.0,-79.0
40.39380860328674,,,-108.0,-1653.0,311.0,-24.0,-84.0,-82.0
40.41443419456482,,,-17.0,-1208.0,331.0,-34.0,-79.0,-81.0
40.4348886013031,,,-38.0,-1723.0,296.0,-42.0,-77.0,-92.0
40.45535612106323,,,-333.0,-2523.0,598.0,-54.0,-75.0,-107.0
40.4759259223938,,,-1551.0,-3067.0,1690.0,-73.0,-81.0,-123.0
40.49610638618469,,,-1936.0,-2949.0,1611.0,-76.0,-85.0,-120.0
40.51672148704529,,,-2310.0,-2800.0,957.0,-77.0,-88.0,-116.0
40.537233114242554,,,-3142.0,-2214.0,-837.0,-71.0,-91.0,-110.0
40.557631731033325,,,-3648.0,-1724.0,-1382.0,-64.0,-93.0,-106.0
40.57404184341431,,,-4129.0,-792.0,-2192.0,-63.0,-97.0,-104.0
40.59426164627075,,,-4201.0,128.0,-1973.0,-69.0,-99.0,-116.0
40.61473083496094,,,-4115.0,1902.0,-806.0,-83.0,-99.0,-133.0
40.634981870651245,,,-3088.0,6527.0,4439.0,-113.0,-72.0,-148.0
40.655616760253906,,,-2305.0,7208.0,6459.0,-104.0,-45.0,-119.0
40.67594528198242,,,-1209.0,6376.0,7749.0,-79.0,-18.0,-80.0
40.69653272628784,,,1528.0,2063.0,8193.0,-27.0,6.0,-23.0
40.716957330703735,,,2404.0,-106.0,7163.0,-5.0,13.0,13.0
40.737571001052856,,,2793.0,-1839.0,5413.0,19.0,16.0,56.0
40.758015155792236,,,1070.0,-3800.0,-213.0,47.0,-9.0,114.0
40.778377056121826,,,-531.0,-4401.0,-3834.0,44.0,-21.0,94.0
40.798829078674316,,,-2288.0,-5489.0,-9546.0,10.0,-33.0,4.0
40.81942558288574,,,-2307.0,-5363.0,-10417.0,-1.0,-32.0,-27.0
40.83976125717163,,,-2161.0,-4908.0,-10136.0,-9.0,-23.0,-42.0
40.86043691635132,,,-1914.0,-3661.0,-7520.0,-41.0,-8.0,-83.0
40.88117718696594,,,-1792.0,-2709.0,-5123.0,-57.0,-5.0,-103.0
40.901416540145874,,,-1190.0,-1990.0,-1759.0,-56.0,0.0,-104.0
40.921693086624146,,,-369.0,-3255.0,5111.0,-38.0,11.0,-73.0
40.94236946105957,,,-283.0,-3876.0,7114.0,-34.0,17.0,-41.0
40.962796449661255,,,-463.0,-3885.0,8543.0,-35.0,18.0,-17.0
40.98340129852295,,,-1378.0,-4451.0,10814.0,-30.0,12.0,37.0
41.00368547439575,,,-1705.0,-4712.0,10990.0,-20.0,6.0,70.0
41.02427268028259,,,-2508.0,-4620.0,10280.0,-12.0,5.0,85.0
41.04481601715088,,,-4985.0,-4856.0,9192.0,1.0,10.0,80.0
41.065200090408325,,,-5959.0,-5238.0,9122.0,-1.0,10.0,72.0
41.08574461936951,,,-5959.0,-5443.0,8338.0,3.0,0.0,68.0
41.10620856285095,,,-5483.0,-5154.0,7337.0,7.0,-4.0,64.0
41.12709403038025,,,-4663.0,-4722.0,6016.0,8.0,-6.0,56.0
41.147523164749146,,,-3964.0,-4303.0,4776.0,9.0,-8.0,53.0
41.16801190376282,,,-3670.0,-3964.0,3538.0,14.0,-15.0,55.0
41.18856406211853,,,-3462.0,-3787.0,1999.0,19.0,-28.0,57.0
41.20900249481201,,,-2448.0,-2958.0,-2678.0,27.0,-38.0,44.0
41.22949433326721,,,-2623.0,-1905.0,-4848.0,17.0,-26.0,24.0
41.24984836578369,,,-3401.0,-531.0,-5581.0,5.0,-11.0,-21.0
41.27040433883667,,,-3391.0,1276.0,-3238.0,-33.0,-4.0,-185.0
41.29056715965271,,,-1346.0,2263.0,-730.0,-43.0,-16.0,-217.0
41.31112051010132,,,2529.0,3402.0,2902.0,-50.0,-26.0,-127.0
41.331650495529175,,,3739.0,2886.0,2739.0,-50.0,-22.0,-89.0
41.35190200805664,,,4452.0,1565.0,1598.0,-41.0,-13.0,-67.0
41.372365951538086,,,2022.0,-2000.0,-1221.0,-15.0,-9.0,-39.0
41.39291977882385,,,-332.0,-3160.0,-2398.0,-10.0,-18.0,-35.0
41.413384675979614,,,-2364.0,-3654.0,-3550.0,-3.0,-29.0,-39.0
41.43389344215393,,,-4879.0,-3193.0,-5856.0,0.0,-49.0,-80.0
41.45463180541992,,,-5155.0,-2827.0,-6559.0,-2.0,-60.0,-95.0
41.47522592544556,,,-4892.0,-2588.0,-6758.0,-2.0,-68.0,-105.0
41.495633125305176,,,-3323.0,-1788.0,-5645.0,-16.0,-87.0,-124.0
41.51617074012756,,,-2235.0,-754.0,-4177.0,-33.0,-96.0,-113.0
41.53662872314453,,,-1521.0,1036.0,-2268.0,-51.0,-104.0,-85.0
41.55710029602051,,,-421.0,6453.0,3147.0,-58.0,-86.0,-59.0
41.577460527420044,,,829.0,7403.0,6564.0,-37.0,-75.0,-113.0
41.597898960113525,,,3343.0,4045.0,9243.0,-12.0,-86.0,-168.0
41.61826515197754,,,3909.0,2105.0,9266.0,11.0,-77.0,-110.0
41.63855862617493,,,3612.0,1397.0,9189.0,21.0,-72.0,-45.0
41.65509080886841,,,2850.0,2741.0,4981.0,21.0,-78.0,3.0
41.67568039894104,,,3019.0,3065.0,2147.0,19.0,-72.0,-5.0
41.69600248336792,,,2920.0,2737.0,-127.0,12.0,-66.0,-33.0
41.716591119766235,,,2085.0,658.0,-1538.0,2.0,-60.0,-63.0
41.736985206604004,,,1564.0,-383.0,-1405.0,-2.0,-55.0,-43.0
41.757553815841675,,,1079.0,-1064.0,-1364.0,-5.0,-50.0,-12.0
41.777973890304565,,,332.0,-1228.0,-2520.0,-6.0,-41.0,28.0
41.798561811447144,,,-40.0,-1010.0,-3381.0,-6.0,-37.0,30.0
41.81902456283569,,,-1059.0,-297.0,-4340.0,-3.0,-35.0,20.0
41.83980870246887,,,-1512.0,46.0,-4311.0,1.0,-38.0,9.0
41.8602774143219,,,-1778.0,448.0,-3975.0,3.0,-37.0,-6.0
41.8807532787323,,,-1621.0,1654.0,-1936.0,-6.0,-31.0,-24.0
41.90118980407715,,,-1270.0,2196.0,-234.0,-12.0,-25.0,-27.0
41.92167329788208,,,-1305.0,2538.0,1638.0,-14.0,-19.0,-26.0
41.94224524497986,,,-2798.0,1238.0,3346.0,2.0,-17.0,-17.0
41.962499141693115,,,-3620.0,370.0,3140.0,8.0,-15.0,-14.0
41.9826934337616,,,-4135.0,23.0,2720.0,11.0,-14.0,-10.0
42.00338792800903,,,-5054.0,697.0,1535.0,10.0,-19.0,-13.0
42.023536920547485,,,-5565.0,1458.0,981.0,5.0,-23.0,-24.0
42.04398036003113,,,-5819.0,1968.0,601.0,-1.0,-30.0,-36.0
42.0645592212677,,,-5116.0,2171.0,216.0,-11.0,-43.0,-41.0
42.08508849143982,,,-4403.0,2278.0,305.0,-17.0,-46.0,-33.0
42.106218338012695,,,-2907.0,2296.0,802.0,-18.0,-43.0,-12.0
42.1265332698822,,,-2289.0,2054.0,847.0,-16.0,-42.0,-9.0
42.14678692817688,,,-1740.0,1766.0,708.0,-15.0,-40.0,-9.0
42.16716742515564,,,-572.0,1433.0,805.0,-19.0,-38.0,-15.0
42.18765187263489,,,0.0,1128.0,1112.0,-20.0,-35.0,-15.0
42.20827770233154,,,381.0,829.0,1312.0,-19.0,-30.0,-11.0
42.2287437915802,,,349.0,728.0,1421.0,-16.0,-17.0,5.0
42.24925422668457,,,-3.0,826.0,1329.0,-15.0,-12.0,10.0
42.269739389419556,,,-515.0,1017.0,1169.0,-14.0,-7.0,8.0
