time,/ext_usb_camera/image/compressed,robogame/imu_state,robogame/imu_state.linear_acc.x,robogame/imu_state.linear_acc.y,robogame/imu_state.linear_acc.z,robogame/imu_state.gyro.z,robogame/imu_state.gyro.x,robogame/imu_state.gyro.y
0.0,,,564.0,6200.0,10514.0,44.0,-25.0,-75.0
0.02054119110107422,,,-415.0,4962.0,6859.0,46.0,-40.0,-53.0
0.04103422164916992,,,-1162.0,3777.0,4458.0,39.0,-52.0,-54.0
0.0615084171295166,,,-2096.0,1557.0,-315.0,19.0,-65.0,-51.0
0.08200955390930176,,,-2189.0,141.0,-2200.0,12.0,-69.0,-45.0
0.1024019718170166,,,-2343.0,-1308.0,-3700.0,11.0,-74.0,-38.0
0.1227874755859375,,,-3724.0,-2875.0,-6178.0,4.0,-87.0,-31.0
0.14340591430664062,,,-4541.0,-2683.0,-6801.0,-7.0,-90.0,-31.0
0.16390705108642578,,,-5010.0,-2127.0,-6763.0,-16.0,-93.0,-38.0
0.18440961837768555,,,-4823.0,-1251.0,-6102.0,-21.0,-107.0,-45.0
0.20465874671936035,,,-4357.0,-1025.0,-5994.0,-16.0,-115.0,-40.0
0.2252204418182373,,,-3929.0,-682.0,-6021.0,-10.0,-122.0,-33.0
0.24567484855651855,,,-3146.0,1607.0,-5928.0,-6.0,-128.0,-16.0
0.26627445220947266,,,-2820.0,4099.0,-5502.0,-19.0,-128.0,-15.0
0.28676819801330566,,,-995.0,10166.0,-2328.0,-54.0,-120.0,-48.0
0.3072702884674072,,,1504.0,11350.0,403.0,-49.0,-111.0,-70.0
0.32761240005493164,,,4052.0,10430.0,2478.0,-30.0,-95.0,-79.0
0.3482058048248291,,,6877.0,7791.0,4710.0,-19.0,-61.0,-73.0
0.3686089515686035,,,7564.0,7421.0,5224.0,-20.0,-51.0,-59.0
0.38909173011779785,,,8027.0,7209.0,4914.0,-17.0,-34.0,-41.0
0.4095895290374756,,,7674.0,7339.0,3550.0,-8.0,8.0,-12.0
0.4301574230194092,,,6518.0,7135.0,2984.0,-9.0,25.0,-21.0
0.45057034492492676,,,4936.0,6366.0,2770.0,-11.0,32.0,-37.0
0.470991849899292,,,1888.0,3677.0,2825.0,-13.0,41.0,-49.0
0.4914085865020752,,,592.0,2348.0,2939.0,-13.0,51.0,-47.0
0.5120348930358887,,,-555.0,1215.0,3200.0,-17.0,58.0,-43.0
0.532470703125,,,-1564.0,-1148.0,3520.0,-35.0,57.0,-36.0
0.552980899810791,,,-1607.0,-2424.0,3075.0,-40.0,55.0,-32.0
0.5733671188354492,,,-1782.0,-3572.0,1600.0,-47.0,55.0,-6.0
0.5940630435943604,,,-1889.0,-3362.0,947.0,-52.0,56.0,11.0
0.614391565322876,,,-1832.0,-2994.0,403.0,-52.0,58.0,34.0
0.6349928379058838,,,-2270.0,-2684.0,-1090.0,-28.0,52.0,61.0
0.6557042598724365,,,-2669.0,-2696.0,-2211.0,-16.0,48.0,61.0
0.676194429397583,,,-3155.0,-2518.0,-3356.0,-7.0,46.0,58.0
0.6966872215270996,,,-4362.0,-2010.0,-4796.0,-3.0,43.0,49.0
0.7171008586883545,,,-4916.0,-2029.0,-4928.0,1.0,35.0,41.0
0.7376224994659424,,,-5155.0,-2110.0,-4998.0,6.0,29.0,27.0
0.7581655979156494,,,-5976.0,-1647.0,-3880.0,-6.0,20.0,-28.0
0.7785110473632812,,,-6505.0,-598.0,-1903.0,-22.0,14.0,-55.0
0.7989311218261719,,,-5986.0,358.0,788.0,-33.0,18.0,-71.0
0.8194913864135742,,,-4666.0,-29.0,3538.0,-29.0,24.0,-73.0
0.8398776054382324,,,-3571.0,-1724.0,5698.0,-17.0,20.0,-70.0
0.8602635860443115,,,-2773.0,-3648.0,8002.0,-8.0,1.0,-55.0
0.8808410167694092,,,-2362.0,-3640.0,8041.0,-5.0,-6.0,-47.0
0.901024341583252,,,-1782.0,-3761.0,7410.0,-2.0,-9.0,-34.0
0.921654224395752,,,-935.0,-3626.0,5226.0,3.0,-10.0,-7.0
0.94217848777771,,,-852.0,-3118.0,3831.0,2.0,-9.0,7.0
0.9625411033630371,,,-869.0,-2540.0,2346.0,0.0,-8.0,19.0
0.983112096786499,,,-834.0,-1937.0,-185.0,-4.0,-7.0,24.0
1.0035278797149658,,,-845.0,-1810.0,-982.0,-6.0,-9.0,24.0
1.0239832401275635,,,-837.0,-1580.0,-1684.0,-7.0,-11.0,27.0
1.0445210933685303,,,-817.0,-831.0,-2801.0,-8.0,-8.0,37.0
1.0649607181549072,,,-762.0,-173.0,-2862.0,-7.0,-7.0,39.0
1.081310749053955,,,-460.0,1891.0,-1726.0,-8.0,-4.0,34.0
1.1018896102905273,,,-289.0,2900.0,-966.0,-9.0,-7.0,24.0
1.122751235961914,,,-18.0,3463.0,-534.0,-11.0,-9.0,13.0
1.1430563926696777,,,673.0,3319.0,-300.0,-7.0,4.0,10.0
1.1635923385620117,,,904.0,2975.0,-92.0,-4.0,11.0,14.0
1.184030532836914,,,1108.0,2539.0,55.0,-2.0,16.0,20.0
1.2045807838439941,,,1261.0,1909.0,-310.0,2.0,22.0,32.0
1.224846363067627,,,1187.0,1770.0,-649.0,4.0,25.0,38.0
1.2453830242156982,,,1089.0,1769.0,-897.0,4.0,27.0,44.0
1.265869140625,,,797.0,2000.0,-818.0,3.0,25.0,52.0
1.286353588104248,,,702.0,2094.0,-708.0,3.0,23.0,54.0
1.3066229820251465,,,404.0,2182.0,-434.0,2.0,24.0,58.0
1.3270645141601562,,,123.0,2132.0,-253.0,1.0,25.0,58.0
1.347579002380371,,,-186.0,1900.0,10.0,-1.0,24.0,54.0
1.3680310249328613,,,-904.0,906.0,993.0,3.0,14.0,40.0
1.3884239196777344,,,-1369.0,526.0,1688.0,4.0,12.0,30.0
1.4088795185089111,,,-1826.0,49.0,2204.0,4.0,15.0,19.0
1.4293458461761475,,,-1790.0,-2035.0,2055.0,8.0,26.0,12.0
1.449819564819336,,,-1739.0,-3144.0,1950.0,9.0,28.0,17.0
1.4703354835510254,,,-1976.0,-3849.0,2151.0,5.0,23.0,17.0
1.4908008575439453,,,-2252.0,-4185.0,2935.0,-4.0,7.0,2.0
1.511284351348877,,,-2029.0,-4363.0,3299.0,-5.0,-5.0,-5.0
1.5317223072052002,,,-1674.0,-4492.0,3371.0,-2.0,-15.0,-9.0
1.5522005558013916,,,-1288.0,-4222.0,2410.0,1.0,-21.0,-6.0
1.5727312564849854,,,-1274.0,-3959.0,1642.0,3.0,-19.0,-4.0
1.5932488441467285,,,-1595.0,-3336.0,146.0,4.0,-19.0,-6.0
1.6137199401855469,,,-1753.0,-3020.0,-531.0,3.0,-20.0,-12.0
1.6343181133270264,,,-1837.0,-2676.0,-1109.0,0.0,-21.0,-21.0
1.6547293663024902,,,-1802.0,-1922.0,-1674.0,-8.0,-20.0,-42.0
1.6752772331237793,,,-1671.0,-1607.0,-1569.0,-12.0,-19.0,-51.0
1.6956501007080078,,,-1424.0,-1314.0,-1305.0,-14.0,-19.0,-56.0
1.7161486148834229,,,-544.0,-504.0,-660.0,-13.0,-11.0,-56.0
1.7366001605987549,,,-61.0,-69.0,-287.0,-12.0,-6.0,-56.0
1.757188320159912,,,343.0,253.0,236.0,-9.0,-3.0,-57.0
1.7775909900665283,,,948.0,516.0,1286.0,-1.0,1.0,-44.0
1.7981622219085693,,,1160.0,532.0,1571.0,4.0,3.0,-29.0
1.8185296058654785,,,967.0,754.0,1705.0,8.0,4.0,-9.0
1.8392653465270996,,,798.0,1151.0,1682.0,8.0,5.0,-3.0
1.859574556350708,,,628.0,1690.0,1654.0,10.0,5.0,1.0
1.8803281784057617,,,429.0,2344.0,1307.0,12.0,3.0,-1.0
1.9009077548980713,,,249.0,2397.0,1153.0,14.0,-1.0,-2.0
1.921506404876709,,,-52.0,2481.0,1137.0,14.0,-5.0,3.0
1.942117691040039,,,-462.0,2745.0,1009.0,16.0,-6.0,19.0
1.9622998237609863,,,-564.0,2755.0,770.0,21.0,-4.0,24.0
1.9826595783233643,,,-746.0,2689.0,431.0,25.0,-3.0,26.0
2.003244400024414,,,-1447.0,2649.0,-148.0,30.0,-3.0,26.0
2.023428440093994,,,-1812.0,2613.0,-320.0,30.0,-4.0,26.0
2.0440051555633545,,,-2042.0,2474.0,-473.0,29.0,-6.0,24.0
2.0645480155944824,,,-2212.0,2028.0,-718.0,29.0,-7.0,17.0
2.08492374420166,,,-2244.0,1825.0,-683.0,30.0,-9.0,15.0
2.105458974838257,,,-2197.0,1610.0,-574.0,30.0,-10.0,14.0
2.1261990070343018,,,-2128.0,1336.0,-453.0,31.0,-11.0,10.0
2.1466476917266846,,,-2140.0,999.0,-366.0,30.0,-11.0,5.0
2.1628570556640625,,,-2402.0,320.0,-122.0,24.0,-11.0,-4.0
2.1835010051727295,,,-2483.0,17.0,-29.0,25.0,-10.0,-7.0
2.2039480209350586,,,-2592.0,-182.0,-1.0,26.0,-9.0,-13.0
2.224207878112793,,,-2975.0,-219.0,164.0,19.0,-9.0,-34.0
2.2446517944335938,,,-2738.0,-464.0,279.0,14.0,-12.0,-45.0
2.2654049396514893,,,-2194.0,-891.0,357.0,12.0,-15.0,-56.0
2.2860825061798096,,,-1327.0,-1340.0,372.0,8.0,-23.0,-73.0
2.306417465209961,,,-880.0,-1436.0,542.0,4.0,-26.0,-75.0
2.3268678188323975,,,288.0,-1585.0,1329.0,1.0,-27.0,-61.0
2.347344160079956,,,666.0,-1599.0,1704.0,6.0,-25.0,-46.0
2.371899366378784,,,873.0,-1621.0,1850.0,12.0,-23.0,-29.0
2.392343044281006,,,997.0,-1593.0,1608.0,14.0,-20.0,-8.0
2.4128432273864746,,,979.0,-1506.0,1574.0,12.0,-19.0,-1.0
2.433258533477783,,,806.0,-1496.0,1540.0,16.0,-15.0,7.0
2.4535903930664062,,,595.0,-1519.0,1432.0,21.0,-12.0,8.0
2.4745194911956787,,,315.0,-1372.0,1376.0,24.0,-9.0,8.0
2.494926929473877,,,30.0,-1020.0,1402.0,19.0,-8.0,8.0
2.5153684616088867,,,-46.0,-937.0,1367.0,18.0,-6.0,9.0
2.535818099975586,,,-191.0,-833.0,1302.0,20.0,-4.0,13.0
2.556304454803467,,,-746.0,-346.0,952.0,25.0,0.0,20.0
2.5766730308532715,,,-1135.0,65.0,755.0,27.0,3.0,18.0
2.597163677215576,,,-1544.0,371.0,592.0,27.0,3.0,12.0
2.617664098739624,,,-1678.0,410.0,226.0,26.0,-4.0,-4.0
2.638026237487793,,,-1462.0,360.0,122.0,23.0,-4.0,-10.0
2.658531904220581,,,-1267.0,463.0,237.0,21.0,-5.0,-10.0
2.6789767742156982,,,-932.0,851.0,463.0,20.0,-5.0,-3.0
2.699502944946289,,,-778.0,1028.0,451.0,22.0,-2.0,-1.0
2.7199840545654297,,,-766.0,961.0,155.0,23.0,2.0,-11.0
2.7404751777648926,,,-907.0,807.0,-51.0,21.0,1.0,-16.0
2.7609148025512695,,,-957.0,706.0,-137.0,18.0,0.0,-16.0
2.7813427448272705,,,-644.0,591.0,-118.0,14.0,-1.0,-9.0
2.802001476287842,,,-484.0,544.0,-220.0,13.0,1.0,-6.0
2.822199583053589,,,-427.0,531.0,-382.0,12.0,3.0,-6.0
2.8427186012268066,,,-340.0,667.0,-556.0,9.0,7.0,-1.0
2.863192081451416,,,-281.0,694.0,-579.0,6.0,8.0,-2.0
2.879622220993042,,,-288.0,673.0,-587.0,4.0,9.0,-5.0
2.8999764919281006,,,-363.0,659.0,-456.0,-2.0,11.0,-7.0
2.920565128326416,,,-343.0,683.0,-271.0,-4.0,11.0,-8.0
2.9409372806549072,,,-316.0,607.0,62.0,-6.0,12.0,-18.0
2.961510181427002,,,-362.0,485.0,100.0,-6.0,14.0,-23.0
2.982144594192505,,,-419.0,424.0,179.0,-6.0,15.0,-24.0
3.0028367042541504,,,-285.0,276.0,504.0,-6.0,14.0,-19.0
3.0231993198394775,,,-175.0,120.0,576.0,-7.0,13.0,-19.0
3.043776035308838,,,-108.0,13.0,581.0,-7.0,12.0,-19.0
3.0640246868133545,,,-97.0,59.0,625.0,-8.0,12.0,-16.0
3.0847299098968506,,,-145.0,98.0,681.0,-7.0,13.0,-15.0
3.1050355434417725,,,-233.0,78.0,714.0,-5.0,13.0,-14.0
3.125565528869629,,,-339.0,27.0,740.0,-2.0,13.0,-9.0
3.145864963531494,,,-359.0,28.0,695.0,-1.0,12.0,-7.0
3.1664083003997803,,,-369.0,42.0,595.0,-2.0,12.0,-6.0
3.1870224475860596,,,-251.0,-32.0,557.0,1.0,11.0,-8.0
3.207362174987793,,,-183.0,-84.0,638.0,3.0,10.0,-10.0
3.2277865409851074,,,-295.0,-56.0,743.0,5.0,7.0,-4.0
3.248410224914551,,,-224.0,-38.0,767.0,6.0,7.0,1.0
3.2687594890594482,,,-137.0,-27.0,728.0,8.0,8.0,6.0
3.2894976139068604,,,-214.0,-358.0,239.0,9.0,9.0,8.0
3.3099136352539062,,,-242.0,-842.0,-143.0,10.0,5.0,4.0
3.3302462100982666,,,-153.0,-1269.0,-341.0,12.0,1.0,4.0
3.350792407989502,,,-806.0,-1125.0,-251.0,14.0,-8.0,15.0
3.3712821006774902,,,-1672.0,-528.0,-240.0,10.0,-11.0,18.0
3.3917579650878906,,,-2157.0,-48.0,-428.0,7.0,-12.0,21.0
3.4122352600097656,,,-1804.0,2.0,-876.0,11.0,-5.0,-4.0
3.4328866004943848,,,-1361.0,-178.0,-847.0,11.0,-5.0,-13.0
3.4531822204589844,,,-617.0,24.0,-546.0,4.0,-8.0,-5.0
3.4737472534179688,,,-157.0,382.0,-448.0,0.0,-10.0,1.0
3.494257688522339,,,449.0,736.0,-374.0,-3.0,-9.0,1.0
3.5147409439086914,,,1367.0,1391.0,-132.0,-11.0,1.0,-5.0
3.5351874828338623,,,1514.0,1542.0,147.0,-13.0,5.0,-7.0
3.555518388748169,,,1467.0,1509.0,411.0,-12.0,8.0,-8.0
3.5759782791137695,,,999.0,1166.0,558.0,-8.0,14.0,-3.0
3.5965487957000732,,,654.0,968.0,475.0,-5.0,17.0,-2.0
3.6170084476470947,,,272.0,720.0,336.0,-4.0,18.0,-2.0
3.637397289276123,,,-475.0,460.0,286.0,-7.0,16.0,0.0
3.657909393310547,,,-844.0,459.0,431.0,-9.0,15.0,0.0
3.678541660308838,,,-1244.0,441.0,613.0,-9.0,15.0,-2.0
3.6988980770111084,,,-2079.0,328.0,888.0,-2.0,12.0,-2.0
3.719475269317627,,,-2232.0,196.0,1005.0,0.0,7.0,-3.0
3.7400853633880615,,,-2005.0,41.0,1492.0,-5.0,-6.0,-3.0
3.76043701171875,,,-2133.0,256.0,1712.0,-6.0,-11.0,0.0
3.781036376953125,,,-2214.0,449.0,1678.0,-5.0,-15.0,0.0
3.8015127182006836,,,-1520.0,384.0,1163.0,-2.0,-17.0,-8.0
3.8220009803771973,,,-1033.0,283.0,895.0,-2.0,-17.0,-9.0
3.8422160148620605,,,-690.0,206.0,577.0,-1.0,-17.0,-10.0
3.8627495765686035,,,-334.0,252.0,127.0,-1.0,-19.0,-14.0
3.8832781314849854,,,-167.0,377.0,117.0,-3.0,-19.0,-16.0
3.9037232398986816,,,105.0,378.0,123.0,-4.0,-19.0,-17.0
3.9241838455200195,,,1003.0,-389.0,-157.0,0.0,-15.0,-20.0
3.9445981979370117,,,1377.0,-986.0,-545.0,3.0,-12.0,-19.0
3.9610657691955566,,,1641.0,-1389.0,-1133.0,2.0,-4.0,2.0
3.981365203857422,,,1382.0,-854.0,-1086.0,2.0,0.0,18.0
4.001899480819702,,,976.0,-180.0,-972.0,2.0,6.0,34.0
4.022301912307739,,,-650.0,-339.0,-841.0,12.0,7.0,36.0
4.0426976680755615,,,-1289.0,-871.0,-936.0,16.0,7.0,27.0
4.063091993331909,,,-1620.0,-1341.0,-1055.0,19.0,7.0,14.0
4.083655834197998,,,-1419.0,-1687.0,-1168.0,15.0,-4.0,-8.0
4.104114294052124,,,-1105.0,-1235.0,-977.0,10.0,-10.0,-8.0
4.124613285064697,,,-829.0,-413.0,-579.0,6.0,-13.0,-6.0
4.145009517669678,,,95.0,1133.0,113.0,6.0,-7.0,-9.0
4.165565490722656,,,353.0,1440.0,353.0,11.0,-2.0,-19.0
4.186042547225952,,,511.0,1358.0,473.0,14.0,0.0,-26.0
4.206465244293213,,,1020.0,753.0,689.0,16.0,-1.0,-20.0
4.226923704147339,,,1048.0,751.0,818.0,15.0,0.0,-14.0
4.24736475944519,,,608.0,1140.0,466.0,17.0,6.0,-7.0
4.268178462982178,,,363.0,1162.0,12.0,17.0,9.0,-6.0
4.288723707199097,,,152.0,1013.0,-342.0,17.0,10.0,-8.0
4.309184312820435,,,-273.0,832.0,-499.0,12.0,10.0,-11.0
4.329726457595825,,,-345.0,807.0,-363.0,9.0,9.0,-11.0
4.35009241104126,,,-314.0,727.0,-233.0,5.0,9.0,-12.0
4.370644807815552,,,-134.0,457.0,30.0,2.0,9.0,-12.0
4.391125440597534,,,-53.0,451.0,166.0,1.0,8.0,-10.0
4.411678075790405,,,116.0,496.0,323.0,1.0,8.0,-7.0
4.432092189788818,,,349.0,309.0,488.0,1.0,9.0,-12.0
4.4525370597839355,,,308.0,146.0,484.0,1.0,10.0,-12.0
4.472961664199829,,,62.0,37.0,456.0,2.0,9.0,-5.0
4.493507385253906,,,-40.0,116.0,382.0,1.0,9.0,-1.0
4.514012575149536,,,-52.0,150.0,249.0,-1.0,9.0,0.0
4.53421425819397,,,-14.0,47.0,9.0,-5.0,10.0,-3.0
4.554774045944214,,,-56.0,-14.0,16.0,-7.0,10.0,-2.0
4.5752341747283936,,,-128.0,-55.0,114.0,-7.0,9.0,2.0
4.595705032348633,,,-196.0,-118.0,224.0,-7.0,8.0,5.0
4.616283416748047,,,-229.0,-156.0,286.0,-8.0,7.0,6.0
4.636808156967163,,,-239.0,-175.0,308.0,-9.0,6.0,6.0
4.657191038131714,,,-235.0,-173.0,308.0,-10.0,5.0,5.0
4.6778199672698975,,,-201.0,-163.0,329.0,-11.0,3.0,6.0
4.69831395149231,,,-121.0,-142.0,372.0,-11.0,2.0,8.0
4.718805313110352,,,0.0,-170.0,445.0,-10.0,0.0,9.0
4.7392659187316895,,,-18.0,-202.0,485.0,-10.0,-1.0,9.0
4.759626626968384,,,-58.0,-158.0,529.0,-9.0,-2.0,14.0
4.780118703842163,,,-65.0,-163.0,478.0,-8.0,-3.0,16.0
4.80067253112793,,,-67.0,-174.0,422.0,-7.0,-3.0,17.0
4.821215867996216,,,-90.0,-397.0,293.0,-7.0,-5.0,14.0
4.841636419296265,,,-117.0,-633.0,246.0,-7.0,-7.0,9.0
4.862005233764648,,,-141.0,-820.0,273.0,-8.0,-7.0,6.0
4.8823158740997314,,,156.0,-1420.0,524.0,-11.0,-6.0,3.0
4.902854919433594,,,335.0,-1626.0,775.0,-12.0,-3.0,8.0
4.923248529434204,,,685.0,-1639.0,1306.0,-15.0,3.0,39.0
4.943659782409668,,,1055.0,-1894.0,1443.0,-14.0,8.0,46.0
4.964194297790527,,,1181.0,-2328.0,1442.0,-9.0,12.0,49.0
4.984766244888306,,,480.0,-2981.0,712.0,0.0,12.0,58.0
5.0051116943359375,,,393.0,-3376.0,12.0,2.0,15.0,60.0
5.025746583938599,,,448.0,-3938.0,-750.0,1.0,19.0,55.0
5.046187877655029,,,328.0,-4450.0,-1536.0,-19.0,18.0,44.0
5.066596031188965,,,212.0,-3953.0,-1044.0,-32.0,19.0,45.0
5.087510108947754,,,144.0,-3332.0,-46.0,-40.0,22.0,41.0
5.1076884269714355,,,-61.0,-2882.0,2124.0,-46.0,23.0,17.0
5.128106594085693,,,-94.0,-2942.0,2943.0,-53.0,21.0,14.0
5.1486358642578125,,,508.0,-3097.0,4854.0,-63.0,24.0,13.0
5.169095516204834,,,790.0,-3042.0,5662.0,-62.0,26.0,17.0
5.189534664154053,,,852.0,-2953.0,5892.0,-63.0,28.0,23.0
5.209974527359009,,,353.0,-2218.0,5802.0,-64.0,27.0,22.0
5.2303032875061035,,,267.0,-1578.0,5914.0,-62.0,23.0,23.0
5.250898599624634,,,321.0,-1100.0,5762.0,-55.0,17.0,25.0
5.271448135375977,,,823.0,240.0,5010.0,-37.0,9.0,32.0
5.2919089794158936,,,990.0,913.0,4709.0,-22.0,7.0,28.0
5.312265634536743,,,832.0,1239.0,4186.0,-4.0,0.0,21.0
5.332805395126343,,,-171.0,1599.0,2420.0,24.0,-16.0,16.0
5.353252410888672,,,-546.0,2161.0,1760.0,29.0,-19.0,14.0
5.37395167350769,,,447.0,3191.0,517.0,30.0,-15.0,14.0
5.394327878952026,,,813.0,3615.0,-345.0,27.0,-9.0,34.0
5.414842844009399,,,261.0,3764.0,-1509.0,22.0,-1.0,58.0
5.435290813446045,,,-1345.0,1932.0,-4713.0,9.0,8.0,61.0
5.45586085319519,,,-1301.0,-156.0,-6284.0,5.0,13.0,39.0
5.476266622543335,,,-878.0,-2284.0,-7626.0,0.0,18.0,7.0
5.496744632720947,,,-743.0,-4679.0,-8736.0,-16.0,9.0,-39.0
5.517303705215454,,,-637.0,-4673.0,-8475.0,-22.0,8.0,-33.0
5.5378577709198,,,-365.0,-4174.0,-7795.0,-22.0,11.0,-12.0
5.558454275131226,,,-1491.0,-3456.0,-5740.0,-25.0,13.0,12.0
5.578951835632324,,,-2630.0,-2974.0,-4501.0,-33.0,11.0,10.0
5.5995166301727295,,,-3251.0,-2246.0,-2973.0,-47.0,11.0,-2.0
5.619746923446655,,,-2468.0,-1449.0,820.0,-62.0,8.0,-45.0
5.640166997909546,,,-1234.0,-1185.0,1682.0,-55.0,-1.0,-38.0
5.660699129104614,,,1424.0,3691.0,3505.0,-53.0,-29.0,2.0
5.6811137199401855,,,3553.0,6155.0,5415.0,-59.0,-35.0,-2.0
5.7016284465789795,,,5467.0,7136.0,7212.0,-42.0,-26.0,-23.0
5.7219398021698,,,6135.0,6297.0,7060.0,-15.0,-6.0,-43.0
5.742473602294922,,,6445.0,4843.0,6892.0,-1.0,-2.0,-41.0
5.758763313293457,,,6443.0,4139.0,6970.0,12.0,-15.0,-10.0
5.779341697692871,,,3883.0,6004.0,4813.0,23.0,-27.0,33.0
5.799705982208252,,,2115.0,6768.0,2734.0,15.0,-24.0,11.0
5.820296764373779,,,1141.0,6493.0,616.0,7.0,-19.0,-35.0
5.84082293510437,,,1572.0,2000.0,-2602.0,12.0,0.0,-61.0
5.861413240432739,,,1776.0,-720.0,-3791.0,18.0,12.0,-31.0
5.881841659545898,,,-912.0,-2583.0,-4903.0,16.0,14.0,35.0
5.902306318283081,,,-2573.0,-1788.0,-4951.0,8.0,11.0,30.0
5.922744035720825,,,-3575.0,-828.0,-4774.0,-10.0,6.0,6.0
5.943457841873169,,,-2446.0,-768.0,-4426.0,-24.0,-9.0,-41.0
5.963799953460693,,,-1367.0,-1411.0,-4249.0,-16.0,-13.0,-37.0
5.984206199645996,,,-614.0,-1369.0,-3768.0,-10.0,-12.0,-23.0
6.004667520523071,,,-569.0,2005.0,-421.0,-28.0,-28.0,-12.0
6.025324583053589,,,173.0,3627.0,1574.0,-35.0,-35.0,-22.0
6.045727014541626,,,1409.0,3908.0,2633.0,-21.0,-33.0,-34.0
6.06596302986145,,,2123.0,3221.0,2549.0,-7.0,-28.0,-38.0
6.086480617523193,,,2162.0,3305.0,2562.0,-5.0,-33.0,-36.0
6.107018232345581,,,2417.0,3498.0,2582.0,-4.0,-34.0,-28.0
6.127488613128662,,,2785.0,3750.0,2140.0,-5.0,-29.0,-23.0
6.147822856903076,,,2883.0,3766.0,1734.0,-9.0,-27.0,-25.0
6.1684043407440186,,,3238.0,3269.0,1287.0,-12.0,-23.0,-27.0
6.188750743865967,,,3262.0,3007.0,1239.0,-7.0,-21.0,-21.0
6.209360122680664,,,3162.0,2747.0,945.0,0.0,-17.0,-11.0
6.229964256286621,,,2466.0,2380.0,-203.0,8.0,-5.0,8.0
6.250441551208496,,,2096.0,2382.0,-728.0,8.0,-2.0,13.0
6.270772457122803,,,1876.0,2526.0,-1120.0,5.0,0.0,14.0
6.291404724121094,,,1842.0,2516.0,-1352.0,2.0,1.0,2.0
6.311757802963257,,,1873.0,2148.0,-1296.0,2.0,3.0,-6.0
6.33228063583374,,,1739.0,1569.0,-1109.0,1.0,5.0,-9.0
6.352611064910889,,,1181.0,232.0,-175.0,-3.0,15.0,-7.0
6.373265743255615,,,864.0,-553.0,343.0,-8.0,19.0,-4.0
6.393603563308716,,,37.0,-2308.0,902.0,-7.0,27.0,-1.0
6.414153337478638,,,-546.0,-2896.0,967.0,-4.0,28.0,3.0
6.434618234634399,,,-993.0,-3183.0,1123.0,1.0,27.0,5.0
6.455252170562744,,,-2020.0,-3576.0,1704.0,3.0,20.0,-3.0
6.47559928894043,,,-2448.0,-3977.0,1719.0,3.0,18.0,1.0
6.49628758430481,,,-2516.0,-4441.0,1663.0,5.0,11.0,9.0
6.516536712646484,,,-1777.0,-4437.0,1573.0,16.0,14.0,31.0
6.537092924118042,,,-2277.0,-3996.0,1776.0,13.0,8.0,26.0
6.557454347610474,,,-2620.0,-3413.0,1791.0,8.0,4.0,20.0
6.577999830245972,,,-2643.0,-2981.0,1427.0,5.0,3.0,11.0
6.59840726852417,,,-2540.0,-2762.0,948.0,2.0,4.0,0.0
6.618915319442749,,,-2139.0,-2587.0,628.0,4.0,-1.0,-15.0
6.639369010925293,,,-1875.0,-2426.0,821.0,5.0,-5.0,-16.0
6.65998911857605,,,-1683.0,-2167.0,1094.0,6.0,-9.0,-15.0
6.680322885513306,,,-1343.0,-1535.0,1387.0,7.0,-12.0,-11.0
6.7009265422821045,,,-1182.0,-1312.0,1450.0,8.0,-15.0,-11.0
6.7213356494903564,,,-1017.0,-1206.0,1429.0,10.0,-18.0,-15.0
6.741880893707275,,,-825.0,-976.0,1068.0,13.0,-25.0,-21.0
6.762360095977783,,,-772.0,-632.0,803.0,11.0,-25.0,-24.0
6.783295154571533,,,-668.0,-200.0,584.0,9.0,-22.0,-26.0
6.803786754608154,,,-271.0,567.0,336.0,7.0,-15.0,-20.0
6.824289560317993,,,-86.0,830.0,243.0,7.0,-13.0,-13.0
6.844650745391846,,,210.0,1323.0,-86.0,4.0,-10.0,3.0
6.865240812301636,,,265.0,1512.0,-298.0,3.0,-6.0,5.0
6.885463237762451,,,263.0,1629.0,-412.0,1.0,-1.0,4.0
6.906169652938843,,,150.0,1445.0,-235.0,-1.0,4.0,-2.0
6.926493406295776,,,46.0,1205.0,-58.0,-2.0,3.0,-5.0
6.947011709213257,,,-42.0,988.0,91.0,-3.0,3.0,-5.0
6.967437982559204,,,-126.0,849.0,225.0,-4.0,2.0,-3.0
6.987672567367554,,,-80.0,807.0,315.0,-3.0,1.0,1.0
7.00840950012207,,,73.0,842.0,266.0,0.0,2.0,5.0
7.02857518196106,,,-11.0,950.0,-82.0,7.0,2.0,6.0
7.049429416656494,,,-242.0,997.0,-292.0,9.0,1.0,6.0
7.069969654083252,,,-805.0,1358.0,-510.0,4.0,-2.0,5.0
7.09026837348938,,,-904.0,1525.0,-473.0,2.0,-2.0,4.0
7.110941410064697,,,-811.0,1558.0,-416.0,2.0,-3.0,2.0
7.131263017654419,,,-584.0,1696.0,-116.0,-2.0,-6.0,-1.0
7.151792049407959,,,-308.0,2017.0,246.0,-7.0,-7.0,3.0
7.172184705734253,,,546.0,2425.0,668.0,-11.0,-6.0,13.0
7.192739248275757,,,4436.0,3085.0,1629.0,-1.0,4.0,38.0
7.213012933731079,,,6188.0,3772.0,2325.0,0.0,17.0,41.0
7.233514785766602,,,6879.0,4472.0,2854.0,-1.0,33.0,49.0
7.254054069519043,,,5840.0,5257.0,4876.0,-5.0,43.0,85.0
7.274311780929565,,,4663.0,4753.0,5647.0,-1.0,45.0,90.0
7.294825553894043,,,3173.0,3171.0,5710.0,7.0,50.0,90.0
7.315296411514282,,,363.0,-962.0,4512.0,14.0,48.0,116.0
7.335705995559692,,,-847.0,-2116.0,3375.0,14.0,42.0,120.0
7.352088689804077,,,-3041.0,-3231.0,41.0,0.0,22.0,70.0
7.37260365486145,,,-3784.0,-3721.0,-1408.0,-8.0,19.0,39.0
7.397230625152588,,,-4173.0,-4022.0,-2113.0,-11.0,16.0,11.0
7.417735576629639,,,-3998.0,-4214.0,-2613.0,-4.0,11.0,-24.0
7.438398361206055,,,-3682.0,-4671.0,-3205.0,3.0,8.0,-29.0
7.458952903747559,,,-2275.0,-5505.0,-5029.0,19.0,3.0,-27.0
7.479458808898926,,,-2063.0,-4972.0,-5677.0,21.0,-6.0,-23.0
7.49969744682312,,,-2357.0,-3387.0,-5772.0,11.0,-18.0,-10.0
7.51999831199646,,,-2098.0,1306.0,-4408.0,-24.0,-26.0,3.0
7.540501832962036,,,-581.0,2883.0,-3338.0,-24.0,-12.0,-6.0
7.5609588623046875,,,1111.0,3240.0,-2313.0,-11.0,4.0,-9.0
7.581609487533569,,,2599.0,3390.0,-1175.0,1.0,20.0,23.0
7.602123737335205,,,3128.0,3857.0,-500.0,3.0,22.0,38.0
7.622514009475708,,,3570.0,4333.0,318.0,5.0,25.0,44.0
7.643104076385498,,,3439.0,3726.0,1518.0,-1.0,27.0,17.0
7.663328170776367,,,3231.0,2643.0,1703.0,-3.0,27.0,5.0
7.684276819229126,,,2703.0,439.0,2147.0,3.0,29.0,13.0
7.704577207565308,,,2088.0,-51.0,2632.0,4.0,33.0,23.0
7.7251129150390625,,,1270.0,-174.0,3320.0,-1.0,34.0,28.0
7.745716333389282,,,576.0,-1214.0,4277.0,-8.0,36.0,30.0
7.766565561294556,,,398.0,-2439.0,4379.0,-10.0,38.0,24.0
7.786832332611084,,,267.0,-3703.0,4303.0,-13.0,40.0,19.0
7.807226657867432,,,-117.0,-5452.0,4580.0,-23.0,35.0,6.0
7.827583312988281,,,-235.0,-5861.0,4945.0,-30.0,24.0,-9.0
7.8480610847473145,,,-155.0,-6073.0,5038.0,-34.0,14.0,-22.0
7.868667840957642,,,-295.0,-5931.0,4437.0,-32.0,-1.0,-43.0
7.889101266860962,,,-415.0,-5604.0,3917.0,-31.0,-5.0,-48.0
7.90959358215332,,,-358.0,-5117.0,3369.0,-28.0,-7.0,-47.0
7.9299845695495605,,,386.0,-4128.0,1714.0,-16.0,-10.0,-34.0
7.9504759311676025,,,558.0,-3715.0,1042.0,-10.0,-14.0,-29.0
7.970895767211914,,,73.0,-2342.0,325.0,-8.0,-25.0,-23.0
7.991398334503174,,,-62.0,-1425.0,18.0,-8.0,-27.0,-24.0
8.011851072311401,,,166.0,-787.0,-381.0,-8.0,-29.0,-29.0
8.032246828079224,,,1338.0,-327.0,-1492.0,-5.0,-27.0,-39.0
8.052738666534424,,,1692.0,-18.0,-1857.0,-4.0,-25.0,-34.0
8.069247722625732,,,1824.0,531.0,-1941.0,-2.0,-24.0,-25.0
8.089883804321289,,,2088.0,1637.0,-1689.0,9.0,-24.0,-11.0
8.110129594802856,,,2004.0,1927.0,-1703.0,13.0,-24.0,-7.0
8.130860090255737,,,1648.0,2119.0,-1757.0,14.0,-23.0,-1.0
8.151252031326294,,,599.0,2684.0,-1458.0,11.0,-18.0,13.0
8.17155408859253,,,71.0,2772.0,-1108.0,12.0,-15.0,17.0
8.191954374313354,,,-654.0,1914.0,-1256.0,16.0,-8.0,7.0
8.212708473205566,,,-984.0,1238.0,-1413.0,16.0,1.0,-5.0
8.233253479003906,,,-1200.0,664.0,-1283.0,16.0,14.0,-13.0
8.253748893737793,,,-579.0,-1288.0,-903.0,25.0,31.0,-26.0
8.274178504943848,,,-71.0,-2508.0,-919.0,25.0,29.0,-30.0
8.294305086135864,,,391.0,-3345.0,-829.0,17.0,24.0,-25.0
8.314609050750732,,,986.0,-2994.0,454.0,-1.0,17.0,-2.0
8.335288763046265,,,1378.0,-2389.0,1290.0,-3.0,23.0,13.0
8.355733394622803,,,2177.0,-2642.0,1615.0,7.0,34.0,27.0
8.376320362091064,,,2305.0,-4508.0,837.0,24.0,38.0,58.0
8.396793365478516,,,1215.0,-4421.0,463.0,17.0,30.0,50.0
8.417147159576416,,,774.0,-3638.0,404.0,3.0,24.0,46.0
8.43761944770813,,,3113.0,-1988.0,702.0,-15.0,26.0,41.0
8.458015203475952,,,4212.0,-2069.0,1325.0,-9.0,26.0,55.0
8.47874140739441,,,2840.0,-2514.0,3971.0,-7.0,18.0,100.0
8.499470949172974,,,2642.0,-2819.0,5884.0,5.0,15.0,98.0
8.519615650177002,,,3430.0,-3549.0,7537.0,25.0,13.0,63.0
8.540317296981812,,,3950.0,-5575.0,9164.0,49.0,-10.0,24.0
8.56073546409607,,,2648.0,-5758.0,9815.0,50.0,-21.0,38.0
8.581141233444214,,,837.0,-5313.0,10050.0,48.0,-28.0,52.0
8.601718425750732,,,-1409.0,-4795.0,7876.0,29.0,-27.0,48.0
8.622177600860596,,,-1812.0,-4886.0,6403.0,14.0,-36.0,42.0
8.642829895019531,,,-1990.0,-4305.0,4821.0,-6.0,-47.0,57.0
8.663231611251831,,,-2335.0,-1141.0,1434.0,-44.0,-49.0,124.0
8.683782815933228,,,-2519.0,425.0,-301.0,-55.0,-34.0,157.0
8.704215049743652,,,-2484.0,779.0,-2635.0,-70.0,-19.0,174.0
8.72469711303711,,,-1708.0,491.0,-3151.0,-74.0,-12.0,156.0
8.74498987197876,,,-941.0,143.0,-2711.0,-73.0,-8.0,143.0
8.765530109405518,,,-805.0,-402.0,750.0,-79.0,-14.0,115.0
8.786137819290161,,,-920.0,-656.0,3840.0,-95.0,-44.0,91.0
8.806408405303955,,,-964.0,370.0,5082.0,-104.0,-57.0,54.0
8.826849222183228,,,67.0,3775.0,7490.0,-87.0,-69.0,-56.0
8.847238779067993,,,1508.0,5280.0,9101.0,-46.0,-79.0,-57.0
8.867756605148315,,,2890.0,5886.0,9770.0,-7.0,-96.0,-37.0
8.888109683990479,,,2259.0,6019.0,10577.0,24.0,-101.0,-12.0
8.908541917800903,,,1452.0,6342.0,11294.0,36.0,-109.0,-7.0
8.929009675979614,,,950.0,6999.0,11011.0,47.0,-105.0,2.0
8.94949460029602,,,1200.0,7890.0,7308.0,69.0,-51.0,28.0
8.969877243041992,,,1696.0,8385.0,4829.0,79.0,-31.0,19.0
8.990441083908081,,,5379.0,9100.0,-3327.0,118.0,30.0,110.0
9.010910034179688,,,5304.0,8228.0,-8116.0,134.0,88.0,140.0
9.031405210494995,,,2936.0,6756.0,-10622.0,141.0,124.0,157.0
9.051955461502075,,,-50.0,4416.0,-10585.0,131.0,120.0,148.0
9.072457075119019,,,-3495.0,-782.0,-8613.0,112.0,83.0,44.0
9.092878818511963,,,-2940.0,-2878.0,-6039.0,99.0,89.0,14.0
9.113353252410889,,,-628.0,-1598.0,-2539.0,96.0,103.0,-18.0
9.133701086044312,,,-223.0,-1137.0,827.0,91.0,111.0,6.0
9.15024185180664,,,-806.0,-903.0,3318.0,71.0,114.0,44.0
9.170758247375488,,,-561.0,-1047.0,4930.0,47.0,116.0,35.0
9.191214084625244,,,593.0,-1947.0,4488.0,37.0,105.0,-10.0
9.211508512496948,,,544.0,-3985.0,2452.0,6.0,90.0,-68.0
9.232128143310547,,,-482.0,-4388.0,1607.0,-4.0,90.0,-81.0
9.25249719619751,,,-699.0,-4823.0,1050.0,-7.0,88.0,-85.0
9.273158073425293,,,920.0,-6915.0,-1119.0,-5.0,50.0,-54.0
9.293622732162476,,,505.0,-7761.0,-2638.0,-6.0,36.0,-38.0
9.314183473587036,,,-514.0,-7683.0,-2961.0,-16.0,37.0,-44.0
9.334641218185425,,,-1641.0,-5508.0,1614.0,-48.0,-1.0,-86.0
9.355154991149902,,,-1681.0,-2583.0,4390.0,-69.0,-36.0,-113.0
9.375557661056519,,,-926.0,1940.0,5677.0,-100.0,-47.0,-181.0
9.396089315414429,,,4874.0,7920.0,6288.0,-73.0,-88.0,-238.0
9.416761636734009,,,7257.0,8328.0,4854.0,-45.0,-93.0,-155.0
9.43746566772461,,,8697.0,8818.0,3398.0,-43.0,-103.0,-45.0
9.457862615585327,,,7982.0,6580.0,-1330.0,-25.0,-83.0,79.0
9.478432655334473,,,6410.0,3681.0,-2414.0,-23.0,-74.0,67.0
9.499063491821289,,,2390.0,-1125.0,-19.0,-45.0,-78.0,-9.0
9.519369840621948,,,1089.0,-1197.0,1271.0,-51.0,-79.0,-5.0
9.539927244186401,,,754.0,17.0,2064.0,-58.0,-71.0,-2.0
9.56023645401001,,,1624.0,2335.0,3114.0,-56.0,-64.0,-18.0
9.580574989318848,,,2002.0,2582.0,3019.0,-53.0,-61.0,-15.0
9.601274728775024,,,2145.0,2714.0,2696.0,-53.0,-54.0,-17.0
9.621577501296997,,,1899.0,2973.0,2845.0,-80.0,-51.0,-23.0
9.642165660858154,,,2073.0,3079.0,3038.0,-95.0,-53.0,-1.0
9.662538290023804,,,2395.0,2856.0,3166.0,-101.0,-49.0,22.0
9.68314790725708,,,1776.0,1200.0,2495.0,-96.0,-44.0,31.0
9.703680515289307,,,720.0,371.0,2131.0,-96.0,-42.0,27.0
9.72405219078064,,,-1401.0,226.0,2105.0,-104.0,-48.0,-1.0
9.744508266448975,,,-2172.0,1086.0,2306.0,-109.0,-48.0,-17.0
9.765021562576294,,,-2320.0,2469.0,2738.0,-110.0,-49.0,-30.0
9.785487413406372,,,-637.0,5109.0,2728.0,-93.0,-33.0,-57.0
9.80611777305603,,,280.0,5312.0,2585.0,-87.0,-27.0,-75.0
9.82675838470459,,,1042.0,5231.0,2301.0,-81.0,-27.0,-89.0
9.847037076950073,,,2846.0,6032.0,1338.0,-51.0,-15.0,-99.0
9.867531299591064,,,4148.0,6108.0,752.0,-35.0,-5.0,-103.0
9.887944221496582,,,5095.0,5512.0,385.0,-26.0,0.0,-101.0
9.90839147567749,,,5271.0,3757.0,-293.0,-13.0,13.0,-73.0
9.928684711456299,,,5169.0,3224.0,-677.0,3.0,26.0,-62.0
9.949297428131104,,,4625.0,2599.0,-286.0,24.0,38.0,-49.0
9.969640731811523,,,4353.0,2310.0,-26.0,32.0,40.0,-38.0
9.990245580673218,,,3947.0,2001.0,55.0,40.0,43.0,-34.0
10.010672569274902,,,2938.0,1364.0,157.0,56.0,46.0,-46.0
10.031412124633789,,,2141.0,1230.0,267.0,47.0,43.0,-45.0
10.05177640914917,,,1434.0,1082.0,533.0,38.0,40.0,-34.0
10.07228708267212,,,189.0,1746.0,1542.0,24.0,42.0,-10.0
10.09273886680603,,,-290.0,2220.0,2027.0,27.0,44.0,-12.0
10.113434076309204,,,-1074.0,1756.0,2330.0,34.0,29.0,-22.0
10.13372015953064,,,-1216.0,1123.0,1977.0,36.0,21.0,-19.0
10.154151678085327,,,-1218.0,710.0,1762.0,34.0,18.0,-16.0
10.174642562866211,,,-1084.0,628.0,1997.0,26.0,16.0,-4.0
10.195113182067871,,,-1228.0,755.0,1915.0,24.0,15.0,1.0
10.215498924255371,,,-1301.0,820.0,1742.0,24.0,16.0,-1.0
10.235875129699707,,,-1081.0,514.0,1542.0,26.0,10.0,-5.0
10.256400346755981,,,-994.0,206.0,1388.0,24.0,6.0,0.0
10.276734113693237,,,-988.0,49.0,1346.0,22.0,2.0,7.0
10.29731559753418,,,-883.0,140.0,1686.0,20.0,1.0,10.0
10.317826986312866,,,-909.0,378.0,2048.0,20.0,0.0,7.0
10.338073492050171,,,-1114.0,526.0,2345.0,22.0,-5.0,8.0
10.358616828918457,,,-1250.0,434.0,2771.0,25.0,-17.0,10.0
10.378992795944214,,,-1308.0,333.0,2891.0,27.0,-17.0,7.0
10.399572610855103,,,-1528.0,-61.0,2812.0,27.0,-24.0,0.0
10.419986009597778,,,-1172.0,-311.0,2752.0,27.0,-29.0,-3.0
10.440378189086914,,,-933.0,-395.0,2604.0,26.0,-33.0,-1.0
10.460922002792358,,,-976.0,-37.0,2032.0,22.0,-39.0,1.0
10.481419324874878,,,-876.0,323.0,1874.0,23.0,-36.0,-2.0
10.502208948135376,,,-916.0,592.0,2001.0,23.0,-36.0,-3.0
10.522883176803589,,,-1128.0,493.0,2322.0,23.0,-40.0,0.0
10.543286800384521,,,-1245.0,417.0,2377.0,22.0,-41.0,3.0
10.563769578933716,,,-1226.0,460.0,2452.0,23.0,-42.0,4.0
10.584151029586792,,,-1042.0,427.0,2249.0,25.0,-41.0,3.0
10.60470724105835,,,-1168.0,316.0,2077.0,23.0,-43.0,4.0
10.625420331954956,,,-1215.0,233.0,2071.0,16.0,-44.0,12.0
10.645596981048584,,,-1187.0,277.0,2060.0,16.0,-43.0,14.0
10.666385412216187,,,-1143.0,329.0,2037.0,16.0,-42.0,12.0
10.686612606048584,,,-550.0,673.0,2317.0,14.0,-40.0,7.0
10.706918478012085,,,-61.0,707.0,2493.0,14.0,-37.0,8.0
10.727585077285767,,,166.0,548.0,2581.0,14.0,-34.0,10.0
10.74793028831482,,,-545.0,615.0,2400.0,15.0,-23.0,10.0
10.768647193908691,,,-880.0,627.0,2274.0,15.0,-19.0,9.0
10.788965702056885,,,-949.0,313.0,2216.0,13.0,-17.0,12.0
10.809598207473755,,,-1081.0,-563.0,2465.0,9.0,-13.0,9.0
10.829988241195679,,,-1109.0,-607.0,2894.0,9.0,-12.0,5.0
10.850419044494629,,,-1143.0,-515.0,3314.0,10.0,-13.0,3.0
10.870731830596924,,,-1544.0,-510.0,3152.0,5.0,-13.0,-3.0
10.891162633895874,,,-1202.0,-521.0,3151.0,4.0,-12.0,0.0
10.9117271900177,,,-1186.0,-532.0,3499.0,0.0,-13.0,-2.0
10.932085514068604,,,-1517.0,-376.0,3599.0,-4.0,-16.0,0.0
10.94853949546814,,,-1465.0,-178.0,3382.0,-5.0,-17.0,2.0
10.96915578842163,,,-490.0,173.0,2992.0,4.0,-13.0,-1.0
10.989416360855103,,,-187.0,133.0,2995.0,7.0,-13.0,-3.0
11.010162115097046,,,-285.0,60.0,3002.0,8.0,-11.0,-5.0
11.030706882476807,,,-907.0,112.0,3068.0,-1.0,-11.0,-7.0
11.051215887069702,,,-772.0,179.0,2993.0,-5.0,-12.0,-2.0
11.071563243865967,,,-509.0,306.0,2860.0,-5.0,-10.0,4.0
11.092160940170288,,,-383.0,582.0,2806.0,-2.0,-8.0,2.0
11.112558364868164,,,-334.0,589.0,2855.0,-1.0,-7.0,0.0
11.132869243621826,,,-570.0,388.0,2829.0,0.0,-4.0,-4.0
11.153769493103027,,,-576.0,279.0,2860.0,1.0,-4.0,-4.0
11.17387866973877,,,-581.0,247.0,2925.0,2.0,-3.0,-4.0
11.1942880153656,,,-514.0,391.0,3071.0,2.0,-3.0,-7.0
11.214857578277588,,,-473.0,483.0,3079.0,0.0,-3.0,-7.0
11.235303163528442,,,-385.0,558.0,3058.0,-2.0,-3.0,-5.0
11.255837440490723,,,-219.0,628.0,2930.0,-4.0,2.0,-1.0
11.276304006576538,,,-253.0,697.0,2936.0,-4.0,4.0,0.0
11.296776533126831,,,-350.0,663.0,2947.0,-3.0,5.0,-3.0
11.317562341690063,,,-715.0,461.0,3000.0,-6.0,4.0,-7.0
11.337807178497314,,,-903.0,421.0,2966.0,-8.0,4.0,-9.0
11.358330249786377,,,-879.0,435.0,2935.0,-10.0,4.0,-10.0
11.37868332862854,,,-415.0,582.0,2909.0,-9.0,5.0,-7.0
11.399227857589722,,,-287.0,617.0,2893.0,-9.0,5.0,-5.0
11.419764995574951,,,-474.0,479.0,2998.0,-9.0,3.0,-3.0
11.440260887145996,,,-597.0,381.0,3012.0,-7.0,1.0,-3.0
11.460600852966309,,,-608.0,360.0,3089.0,-6.0,1.0,-4.0
11.481321096420288,,,-602.0,453.0,3226.0,-3.0,-2.0,-5.0
11.731069564819336,,,-620.0,360.0,2904.0,-10.0,-4.0,-4.0
11.751275300979614,,,-460.0,430.0,2826.0,-10.0,-4.0,-4.0
11.771883249282837,,,-387.0,426.0,2878.0,-11.0,-4.0,-3.0
11.792505979537964,,,-397.0,357.0,2914.0,-11.0,-3.0,-2.0
11.812904357910156,,,-435.0,325.0,2697.0,-8.0,-1.0,-3.0
11.83351182937622,,,-527.0,330.0,2617.0,-7.0,-2.0,-4.0
11.85401463508606,,,-674.0,405.0,2661.0,-7.0,-2.0,-9.0
11.874401092529297,,,-536.0,410.0,2688.0,-6.0,-2.0,-9.0
11.894897699356079,,,-367.0,403.0,2719.0,-5.0,-2.0,-8.0
11.915103912353516,,,-504.0,423.0,2820.0,-5.0,0.0,-8.0
11.935628652572632,,,-610.0,404.0,2941.0,-5.0,0.0,-9.0
11.956023454666138,,,-587.0,402.0,3075.0,-5.0,-1.0,-9.0
11.976523160934448,,,-657.0,460.0,3263.0,-3.0,-1.0,-7.0
11.996915340423584,,,-725.0,419.0,3349.0,-3.0,-4.0,-7.0
12.017866134643555,,,-818.0,337.0,3438.0,-2.0,-7.0,-9.0
12.038147449493408,,,-674.0,341.0,3433.0,-2.0,-8.0,-9.0
12.058638572692871,,,-507.0,380.0,3397.0,0.0,-9.0,-5.0
12.078984260559082,,,-444.0,405.0,3353.0,1.0,-9.0,-4.0
12.099533796310425,,,-623.0,263.0,3224.0,0.0,-12.0,-3.0
12.120170593261719,,,-695.0,259.0,3137.0,-1.0,-13.0,-4.0
12.140734434127808,,,-752.0,301.0,3068.0,-2.0,-12.0,-6.0
12.16115927696228,,,-570.0,435.0,2680.0,-3.0,-10.0,-10.0
12.181723594665527,,,-287.0,367.0,2503.0,-2.0,-8.0,-7.0
12.202044248580933,,,-255.0,386.0,2710.0,-2.0,-6.0,-2.0
12.222445487976074,,,-521.0,362.0,2791.0,-3.0,-6.0,-3.0
12.24299430847168,,,-734.0,321.0,2843.0,-4.0,-6.0,-4.0
12.263527393341064,,,-748.0,213.0,2870.0,-5.0,-8.0,-8.0
12.283756017684937,,,-537.0,202.0,2826.0,-5.0,-8.0,-6.0
12.304500341415405,,,-284.0,233.0,2793.0,-3.0,-7.0,-1.0
12.324863910675049,,,-313.0,333.0,2880.0,-3.0,-11.0,2.0
12.34536361694336,,,-348.0,629.0,3028.0,-4.0,-16.0,6.0
12.365904092788696,,,-265.0,1263.0,3043.0,-4.0,-19.0,11.0
12.386357545852661,,,-257.0,1536.0,3023.0,-5.0,-21.0,7.0
12.406658172607422,,,-179.0,1722.0,3137.0,-6.0,-24.0,3.0
12.427344799041748,,,-56.0,1624.0,2887.0,-6.0,-28.0,11.0
12.447741508483887,,,-435.0,1708.0,2708.0,-5.0,-33.0,14.0
12.468398332595825,,,-746.0,2230.0,2879.0,-8.0,-46.0,23.0
12.488815069198608,,,-9.0,3062.0,2209.0,-7.0,-43.0,36.0
12.509355068206787,,,251.0,3295.0,1623.0,-9.0,-40.0,36.0
12.529879808425903,,,157.0,3091.0,980.0,-5.0,-46.0,39.0
12.55008578300476,,,265.0,2885.0,1007.0,-1.0,-40.0,40.0
12.57059907913208,,,877.0,2975.0,996.0,-1.0,-29.0,36.0
12.591076135635376,,,2166.0,4442.0,1871.0,2.0,-38.0,33.0
12.611489295959473,,,2526.0,4898.0,2121.0,7.0,-34.0,41.0
12.63206958770752,,,2317.0,5155.0,2589.0,7.0,-25.0,45.0
12.652467727661133,,,1466.0,5180.0,4148.0,-4.0,-14.0,28.0
12.673002243041992,,,1488.0,4968.0,4721.0,-9.0,-16.0,19.0
12.69346284866333,,,1872.0,4605.0,4683.0,-11.0,-14.0,12.0
12.714101791381836,,,1648.0,4452.0,3732.0,-11.0,-2.0,-6.0
12.73447561264038,,,1232.0,4583.0,3534.0,-12.0,5.0,-15.0
12.75475525856018,,,498.0,3784.0,3289.0,-15.0,13.0,-53.0
12.775481939315796,,,59.0,2927.0,2765.0,-17.0,18.0,-63.0
12.79577112197876,,,-330.0,2024.0,2081.0,-23.0,20.0,-64.0
12.816308736801147,,,-591.0,205.0,708.0,-36.0,28.0,-78.0
12.837032556533813,,,-917.0,-595.0,413.0,-35.0,26.0,-92.0
12.85736346244812,,,-1411.0,-1523.0,89.0,-31.0,21.0,-102.0
12.878011703491211,,,-1631.0,-2466.0,-620.0,-32.0,26.0,-85.0
12.898293018341064,,,-1541.0,-1619.0,-661.0,-35.0,33.0,-73.0
12.91873025894165,,,-1433.0,-301.0,-426.0,-38.0,36.0,-67.0
12.939132452011108,,,-1126.0,767.0,358.0,-47.0,43.0,-75.0
12.959578275680542,,,-737.0,257.0,1476.0,-38.0,44.0,-88.0
12.98015570640564,,,-337.0,-83.0,3115.0,-20.0,39.0,-100.0
13.0006422996521,,,608.0,677.0,5758.0,-1.0,35.0,-72.0
13.021122217178345,,,348.0,1406.0,6668.0,-1.0,37.0,-62.0
13.041475057601929,,,-1014.0,2577.0,7328.0,-5.0,35.0,-66.0
13.062094926834106,,,-1118.0,2871.0,6670.0,-9.0,39.0,-67.0
13.082557439804077,,,-1470.0,3122.0,5599.0,-15.0,46.0,-72.0
13.102879524230957,,,-1907.0,2974.0,1946.0,-46.0,60.0,-81.0
13.123248815536499,,,-1757.0,2117.0,137.0,-60.0,62.0,-75.0
13.143836259841919,,,-1894.0,1051.0,-1318.0,-66.0,54.0,-63.0
13.164213180541992,,,-3106.0,949.0,-2899.0,-69.0,39.0,-32.0
13.18470311164856,,,-3675.0,1862.0,-2654.0,-61.0,40.0,-16.0
13.20505976676941,,,-4397.0,2305.0,-2299.0,-50.0,46.0,-16.0
13.22563362121582,,,-6135.0,3253.0,-1381.0,-66.0,25.0,-78.0
13.241960287094116,,,-5331.0,3791.0,51.0,-99.0,12.0,-145.0
13.262510538101196,,,-945.0,-409.0,6899.0,-80.0,0.0,-182.0
13.282848119735718,,,-1237.0,-2337.0,9583.0,-45.0,-14.0,-121.0
13.303464412689209,,,-1358.0,-3330.0,10129.0,-37.0,-24.0,-59.0
13.323789358139038,,,-241.0,-2927.0,7625.0,-42.0,-22.0,-26.0
13.34442663192749,,,181.0,-3156.0,6131.0,-40.0,-28.0,-23.0
13.364828824996948,,,904.0,-3315.0,4157.0,-39.0,-36.0,-16.0
13.385374546051025,,,2126.0,-3687.0,2062.0,-44.0,-31.0,-2.0
13.405741214752197,,,3206.0,-6879.0,-1496.0,-31.0,-1.0,37.0
13.426347255706787,,,2745.0,-8364.0,-3592.0,-12.0,13.0,76.0
13.4467453956604,,,1779.0,-6593.0,-7432.0,8.0,32.0,133.0
13.467231512069702,,,1100.0,-4362.0,-7321.0,10.0,41.0,127.0
13.487625360488892,,,-123.0,-2735.0,-5794.0,23.0,46.0,91.0
13.508203268051147,,,-1778.0,-1606.0,-3113.0,31.0,45.0,41.0
13.52858853340149,,,-3078.0,-251.0,747.0,25.0,48.0,12.0
13.549137115478516,,,-3605.0,-2086.0,7356.0,22.0,64.0,21.0
13.56972622871399,,,-3337.0,-3835.0,7435.0,36.0,61.0,47.0
13.590256690979004,,,-3245.0,-3499.0,6466.0,42.0,57.0,66.0
13.610694408416748,,,-4442.0,426.0,4274.0,34.0,56.0,62.0
13.631211757659912,,,-5555.0,1748.0,3345.0,20.0,53.0,48.0
13.6517014503479,,,-6554.0,2115.0,2107.0,13.0,49.0,38.0
13.672249555587769,,,-8884.0,1377.0,-2380.0,28.0,24.0,35.0
13.6926851272583,,,-10314.0,949.0,-6061.0,18.0,17.0,22.0
13.713244438171387,,,-11033.0,1099.0,-9670.0,-13.0,10.0,-16.0
13.734087944030762,,,-8195.0,3490.0,-11086.0,-59.0,-1.0,-108.0
13.754326105117798,,,-5226.0,4766.0,-8387.0,-82.0,9.0,-130.0
13.774771690368652,,,2118.0,1955.0,2259.0,-120.0,-10.0,-199.0
13.795238971710205,,,4138.0,-1480.0,6158.0,-116.0,-9.0,-169.0
13.815635919570923,,,4373.0,-4476.0,7942.0,-84.0,1.0,-88.0
13.83617639541626,,,3974.0,-7117.0,6957.0,-48.0,8.0,6.0
13.856502056121826,,,4165.0,-6959.0,5334.0,-51.0,13.0,28.0
13.87714695930481,,,4530.0,-7044.0,3306.0,-47.0,15.0,42.0
13.897552490234375,,,4347.0,-7131.0,-524.0,-25.0,25.0,64.0
13.91797399520874,,,3783.0,-6804.0,-1394.0,-12.0,27.0,78.0
13.938301086425781,,,3418.0,-6388.0,-1405.0,2.0,30.0,93.0
13.959084033966064,,,2452.0,-4791.0,522.0,28.0,38.0,128.0
13.979488849639893,,,1386.0,-3727.0,1645.0,39.0,35.0,122.0
14.000040769577026,,,79.0,-2805.0,2870.0,44.0,29.0,107.0
14.020492315292358,,,-1815.0,-1730.0,5629.0,39.0,28.0,83.0
14.040973663330078,,,-2256.0,-1878.0,6193.0,38.0,26.0,78.0
14.061440467834473,,,-2230.0,-2853.0,5330.0,50.0,23.0,82.0
14.081934213638306,,,-2394.0,-2885.0,4872.0,53.0,19.0,82.0
14.102359294891357,,,-2340.0,-2954.0,3953.0,54.0,19.0,80.0
14.122792720794678,,,-2050.0,-3129.0,1999.0,50.0,28.0,70.0
14.143355369567871,,,-2190.0,-2966.0,1574.0,46.0,28.0,65.0
14.163874864578247,,,-2313.0,-2751.0,1383.0,41.0,26.0,65.0
14.18433427810669,,,-2328.0,-2705.0,975.0,37.0,20.0,67.0
14.204685688018799,,,-2313.0,-2866.0,523.0,36.0,17.0,64.0
14.225286722183228,,,-2396.0,-2916.0,46.0,34.0,15.0,61.0
14.24582839012146,,,-2786.0,-2476.0,-225.0,27.0,11.0,47.0
14.266493797302246,,,-2759.0,-2436.0,-173.0,22.0,8.0,36.0
14.286916017532349,,,-2080.0,-2896.0,-85.0,11.0,7.0,23.0
14.30719256401062,,,-1650.0,-3079.0,131.0,9.0,8.0,19.0
14.32353138923645,,,-1316.0,-3151.0,392.0,7.0,7.0,18.0
14.344175577163696,,,-1099.0,-3122.0,575.0,5.0,5.0,15.0
14.36461615562439,,,-926.0,-3072.0,663.0,2.0,2.0,8.0
14.385084629058838,,,-651.0,-2991.0,722.0,-1.0,0.0,1.0
14.405462265014648,,,-110.0,-2565.0,1002.0,-4.0,-3.0,-5.0
14.42615032196045,,,95.0,-2280.0,1067.0,-6.0,-4.0,-5.0
14.446575403213501,,,391.0,-2037.0,1099.0,-7.0,-4.0,-4.0
14.467085599899292,,,989.0,-1831.0,1232.0,-2.0,-2.0,1.0
14.487502098083496,,,1000.0,-1834.0,1259.0,1.0,-2.0,2.0
14.508070468902588,,,869.0,-1772.0,1236.0,2.0,-4.0,3.0
14.52842664718628,,,691.0,-1236.0,1128.0,2.0,-7.0,5.0
14.549128293991089,,,629.0,-899.0,1052.0,1.0,-7.0,6.0
14.569517850875854,,,581.0,-562.0,883.0,2.0,-7.0,5.0
14.590035438537598,,,585.0,-547.0,797.0,3.0,-6.0,5.0
14.610359907150269,,,576.0,-508.0,720.0,4.0,-6.0,6.0
14.630866289138794,,,549.0,-268.0,580.0,3.0,-7.0,7.0
14.651296854019165,,,623.0,-204.0,475.0,4.0,-7.0,5.0
14.671682596206665,,,750.0,-161.0,386.0,5.0,-7.0,4.0
14.692368745803833,,,1010.0,98.0,416.0,4.0,-6.0,7.0
14.712774276733398,,,1124.0,220.0,478.0,2.0,-5.0,6.0
14.733444452285767,,,1216.0,275.0,547.0,1.0,-3.0,5.0
14.75388765335083,,,1252.0,292.0,846.0,3.0,1.0,9.0
14.774345874786377,,,1283.0,286.0,980.0,3.0,2.0,12.0
14.794882535934448,,,1099.0,332.0,1169.0,4.0,5.0,8.0
14.81533432006836,,,915.0,258.0,1216.0,4.0,6.0,2.0
14.835747718811035,,,845.0,63.0,1200.0,4.0,7.0,0.0
14.856170892715454,,,706.0,-380.0,1053.0,6.0,7.0,3.0
14.876767635345459,,,532.0,-486.0,958.0,6.0,7.0,4.0
14.897272109985352,,,381.0,-452.0,861.0,5.0,5.0,4.0
14.917645692825317,,,309.0,-226.0,730.0,1.0,4.0,-2.0
14.942304134368896,,,433.0,-261.0,699.0,0.0,5.0,-4.0
14.962719917297363,,,695.0,-514.0,756.0,0.0,6.0,-3.0
14.983183145523071,,,715.0,-547.0,799.0,0.0,5.0,-3.0
15.003499984741211,,,717.0,-499.0,837.0,0.0,4.0,-3.0
15.024203777313232,,,807.0,-444.0,928.0,0.0,4.0,-3.0
15.040655851364136,,,822.0,-465.0,957.0,1.0,4.0,-2.0
15.060965061187744,,,787.0,-488.0,941.0,1.0,4.0,0.0
15.081494808197021,,,523.0,-485.0,975.0,-1.0,3.0,-1.0
15.101905584335327,,,471.0,-446.0,1015.0,-2.0,2.0,-1.0
15.122469425201416,,,551.0,-416.0,1041.0,-2.0,2.0,-2.0
15.142940282821655,,,720.0,-443.0,1150.0,-3.0,2.0,-2.0
15.163245439529419,,,755.0,-429.0,1215.0,-3.0,1.0,0.0
15.18387484550476,,,734.0,-325.0,1307.0,-2.0,1.0,1.0
15.204460144042969,,,717.0,-288.0,1316.0,-1.0,0.0,1.0
15.224919557571411,,,701.0,-313.0,1275.0,0.0,0.0,1.0
15.24517273902893,,,721.0,-401.0,1107.0,0.0,-1.0,2.0
15.26583194732666,,,683.0,-384.0,1029.0,0.0,-1.0,4.0
15.286258697509766,,,608.0,-334.0,968.0,0.0,-2.0,4.0
15.306630611419678,,,469.0,-188.0,958.0,-1.0,-2.0,3.0
15.327204704284668,,,563.0,-218.0,969.0,-1.0,-2.0,3.0
15.347563982009888,,,646.0,-318.0,1023.0,-1.0,-2.0,3.0
15.36797547340393,,,523.0,-318.0,1144.0,0.0,-3.0,5.0
15.38840937614441,,,537.0,-269.0,1137.0,-1.0,-4.0,5.0
15.408936023712158,,,702.0,-223.0,1147.0,-2.0,-3.0,5.0
15.429409980773926,,,750.0,-229.0,1110.0,-2.0,-3.0,8.0
15.449826717376709,,,782.0,-238.0,1049.0,-2.0,-2.0,10.0
15.470366477966309,,,688.0,-189.0,1006.0,-1.0,-2.0,10.0
15.490727186203003,,,540.0,-215.0,1026.0,-1.0,-1.0,9.0
15.511324167251587,,,430.0,-288.0,1030.0,-1.0,-1.0,8.0
15.531661033630371,,,499.0,-425.0,1024.0,-1.0,-2.0,8.0
15.552296161651611,,,436.0,-422.0,1003.0,-1.0,-1.0,8.0
15.572689294815063,,,300.0,-372.0,1016.0,0.0,-1.0,6.0
15.593573331832886,,,339.0,-360.0,972.0,-2.0,-1.0,3.0
15.613835573196411,,,455.0,-423.0,905.0,-2.0,-1.0,2.0
15.634425401687622,,,473.0,-459.0,860.0,-1.0,1.0,2.0
15.654828071594238,,,214.0,-405.0,982.0,-1.0,1.0,0.0
15.675398111343384,,,127.0,-383.0,1022.0,-3.0,1.0,-1.0
15.69577670097351,,,280.0,-414.0,1006.0,-5.0,1.0,-3.0
15.716662883758545,,,381.0,-436.0,1033.0,-5.0,1.0,-4.0
15.736778497695923,,,437.0,-443.0,1060.0,-5.0,1.0,-4.0
15.757364988327026,,,357.0,-380.0,1112.0,-5.0,0.0,-6.0
15.777753114700317,,,446.0,-362.0,1105.0,-7.0,-1.0,-6.0
15.798515796661377,,,654.0,-348.0,1104.0,-8.0,-2.0,-5.0
15.818625926971436,,,706.0,-253.0,1162.0,-6.0,-1.0,-2.0
15.839226007461548,,,620.0,-201.0,1149.0,-6.0,-1.0,0.0
15.859620571136475,,,613.0,-171.0,1142.0,-7.0,-1.0,0.0
15.880221843719482,,,622.0,-214.0,1214.0,-7.0,-1.0,-1.0
15.900591135025024,,,554.0,-259.0,1238.0,-7.0,-1.0,0.0
15.921042919158936,,,421.0,-206.0,1233.0,-7.0,-2.0,1.0
15.941640853881836,,,434.0,-148.0,1205.0,-8.0,-2.0,1.0
15.962091207504272,,,469.0,-125.0,1147.0,-9.0,-2.0,1.0
15.98242449760437,,,495.0,-81.0,1016.0,-9.0,-1.0,4.0
16.0030677318573,,,449.0,-35.0,982.0,-9.0,-1.0,4.0
16.023550271987915,,,419.0,-14.0,987.0,-10.0,-1.0,4.0
16.0441312789917,,,445.0,-113.0,954.0,-11.0,-1.0,3.0
16.064393758773804,,,420.0,-220.0,924.0,-10.0,-1.0,3.0
16.08474612236023,,,452.0,-293.0,873.0,-9.0,0.0,5.0
16.10543465614319,,,527.0,-551.0,624.0,-6.0,2.0,6.0
16.12182378768921,,,408.0,-782.0,449.0,-3.0,3.0,5.0
16.14229393005371,,,206.0,-996.0,351.0,-1.0,5.0,3.0
16.162823915481567,,,-180.0,-1080.0,731.0,-1.0,5.0,-2.0
16.183228969573975,,,-93.0,-1084.0,983.0,-2.0,4.0,-4.0
16.20367670059204,,,306.0,-1229.0,1250.0,1.0,4.0,-4.0
16.224245071411133,,,523.0,-1430.0,1210.0,5.0,4.0,0.0
16.244705200195312,,,591.0,-1656.0,999.0,10.0,3.0,4.0
16.265138864517212,,,111.0,-2201.0,174.0,13.0,6.0,1.0
16.285564422607422,,,-372.0,-2341.0,-21.0,10.0,8.0,-3.0
16.30599808692932,,,-669.0,-2371.0,48.0,6.0,8.0,-7.0
16.326371908187866,,,-71.0,-2754.0,313.0,-4.0,4.0,-10.0
16.34684443473816,,,399.0,-3146.0,304.0,-7.0,0.0,-5.0
16.36730146408081,,,776.0,-3442.0,286.0,-7.0,-2.0,4.0
16.387786149978638,,,933.0,-3547.0,839.0,-3.0,-5.0,21.0
16.408140420913696,,,898.0,-3458.0,1397.0,-2.0,-7.0,30.0
16.428815841674805,,,1092.0,-3711.0,2777.0,3.0,-15.0,41.0
16.449490547180176,,,736.0,-3905.0,3502.0,5.0,-20.0,39.0
16.469821453094482,,,155.0,-3706.0,4465.0,1.0,-23.0,34.0
16.490071773529053,,,27.0,-2083.0,6393.0,-14.0,-19.0,32.0
16.510544061660767,,,439.0,-1269.0,7010.0,-15.0,-9.0,25.0
16.531081914901733,,,448.0,-351.0,7964.0,-15.0,-5.0,14.0
16.55177593231201,,,850.0,2031.0,9497.0,-7.0,0.0,23.0
16.572274446487427,,,882.0,2824.0,9368.0,4.0,6.0,35.0
16.59273099899292,,,502.0,3298.0,8633.0,12.0,12.0,33.0
16.61305046081543,,,321.0,3901.0,6073.0,9.0,16.0,3.0
16.633625507354736,,,855.0,4038.0,4741.0,6.0,16.0,-16.0
16.654381036758423,,,1420.0,3945.0,3704.0,9.0,13.0,-22.0
16.674744367599487,,,1614.0,3676.0,2409.0,16.0,5.0,1.0
16.695297241210938,,,1801.0,3408.0,1365.0,14.0,3.0,4.0
16.715664386749268,,,2524.0,2466.0,-796.0,3.0,7.0,5.0
16.736231327056885,,,2529.0,1906.0,-1652.0,0.0,9.0,18.0
16.756717443466187,,,2410.0,1047.0,-2683.0,-1.0,11.0,32.0
16.77714991569519,,,1771.0,-1532.0,-4857.0,-9.0,12.0,51.0
16.79765009880066,,,1043.0,-2846.0,-5469.0,-11.0,7.0,53.0
16.818147659301758,,,60.0,-3709.0,-5723.0,-10.0,2.0,54.0
16.838687419891357,,,-1583.0,-4160.0,-5065.0,-1.0,-4.0,48.0
16.85922908782959,,,-1918.0,-4005.0,-4263.0,4.0,-11.0,37.0
16.879629850387573,,,-1914.0,-3768.0,-3497.0,5.0,-16.0,25.0
16.899972677230835,,,-928.0,-3148.0,-2212.0,2.0,-24.0,19.0
16.920472145080566,,,-552.0,-2591.0,-1472.0,0.0,-27.0,25.0
16.94108009338379,,,-789.0,-1196.0,68.0,5.0,-16.0,33.0
16.961510181427002,,,-1191.0,-784.0,540.0,12.0,-12.0,27.0
16.98197031021118,,,-1626.0,-426.0,742.0,14.0,-13.0,12.0
17.002546787261963,,,-2212.0,2016.0,2245.0,-7.0,-25.0,-30.0
17.02300524711609,,,-2026.0,4075.0,3641.0,-17.0,-27.0,-57.0
17.043486833572388,,,-1135.0,5510.0,4802.0,-8.0,-22.0,-79.0
17.063984870910645,,,279.0,5474.0,5486.0,9.0,-17.0,-95.0
17.0844669342041,,,997.0,5478.0,5228.0,-2.0,-21.0,-96.0
17.10470986366272,,,2061.0,5476.0,4700.0,-11.0,-24.0,-92.0
17.12542986869812,,,2606.0,5613.0,3954.0,-12.0,-19.0,-59.0
17.14588212966919,,,2277.0,5588.0,3457.0,-14.0,-17.0,-48.0
17.166402339935303,,,1976.0,5267.0,2850.0,-15.0,-13.0,-44.0
17.182580709457397,,,1655.0,3786.0,1908.0,-19.0,-11.0,-43.0
17.203142642974854,,,1554.0,2912.0,1492.0,-18.0,-10.0,-35.0
17.223519802093506,,,475.0,1739.0,655.0,-22.0,-11.0,-25.0
17.2439444065094,,,54.0,1431.0,117.0,-26.0,-11.0,-26.0
17.264646768569946,,,-91.0,1201.0,-236.0,-29.0,-10.0,-32.0
17.28507375717163,,,99.0,822.0,-206.0,-28.0,-11.0,-42.0
17.305522441864014,,,344.0,629.0,-132.0,-27.0,-10.0,-40.0
17.326091527938843,,,574.0,500.0,-105.0,-26.0,-8.0,-34.0
17.346491813659668,,,628.0,520.0,-11.0,-24.0,-4.0,-23.0
17.366841793060303,,,526.0,595.0,38.0,-22.0,-3.0,-20.0
17.38729763031006,,,487.0,630.0,27.0,-21.0,-3.0,-19.0
17.407843112945557,,,544.0,416.0,-252.0,-13.0,-2.0,-14.0
17.428121328353882,,,332.0,269.0,-490.0,-6.0,0.0,-10.0
17.452670097351074,,,-587.0,529.0,-827.0,-1.0,-1.0,-12.0
17.473209619522095,,,-689.0,733.0,-867.0,-4.0,-3.0,-18.0
17.49363088607788,,,-464.0,807.0,-683.0,-7.0,-5.0,-25.0
17.51442313194275,,,175.0,1069.0,315.0,-10.0,-8.0,-27.0
17.534910440444946,,,554.0,1327.0,1085.0,-13.0,-6.0,-22.0
17.555357933044434,,,895.0,1488.0,1995.0,-18.0,-1.0,-17.0
17.575734615325928,,,1336.0,612.0,3191.0,-14.0,15.0,-4.0
17.59614324569702,,,1185.0,-519.0,3024.0,-3.0,23.0,4.0
17.61670207977295,,,-186.0,-2771.0,2193.0,12.0,27.0,15.0
17.637072563171387,,,-1301.0,-3365.0,1976.0,13.0,19.0,12.0
17.657482147216797,,,-2249.0,-3680.0,1791.0,12.0,11.0,4.0
17.678250551223755,,,-3093.0,-4609.0,1687.0,11.0,-3.0,0.0
17.698861360549927,,,-3534.0,-5278.0,1857.0,12.0,-13.0,1.0
17.719263792037964,,,-4212.0,-5893.0,2146.0,15.0,-26.0,7.0
17.73980188369751,,,-5751.0,-5293.0,2883.0,16.0,-41.0,2.0
17.76029372215271,,,-6590.0,-3598.0,4042.0,-2.0,-42.0,-9.0
17.780575275421143,,,-6399.0,-1620.0,5375.0,-27.0,-40.0,-14.0
17.801182508468628,,,-3290.0,-416.0,6181.0,-44.0,-26.0,-32.0
17.82165217399597,,,-1892.0,-674.0,6161.0,-37.0,-26.0,-48.0
17.842414617538452,,,123.0,-101.0,5876.0,-13.0,-31.0,-48.0
17.86241841316223,,,619.0,1585.0,6467.0,-9.0,-35.0,-25.0
17.8830304145813,,,1240.0,3547.0,6912.0,-8.0,-38.0,1.0
17.89930820465088,,,2235.0,4861.0,5268.0,6.0,-23.0,1.0
17.9198739528656,,,2245.0,4564.0,4145.0,13.0,-16.0,-8.0
17.94030451774597,,,1936.0,4350.0,3261.0,18.0,-14.0,-14.0
17.960824012756348,,,1351.0,4073.0,1557.0,20.0,-10.0,-20.0
17.981276988983154,,,1455.0,3737.0,649.0,19.0,-8.0,-18.0
18.001885414123535,,,1697.0,3246.0,-303.0,19.0,-7.0,-13.0
18.022300720214844,,,2181.0,2085.0,-2504.0,11.0,3.0,-4.0
18.04281497001648,,,2234.0,1281.0,-3522.0,5.0,14.0,-2.0
18.06321907043457,,,2126.0,277.0,-4292.0,-2.0,21.0,-1.0
18.08396601676941,,,1627.0,-2189.0,-5104.0,-3.0,19.0,3.0
18.10415816307068,,,1038.0,-3071.0,-5288.0,0.0,18.0,11.0
18.125060558319092,,,-1218.0,-3402.0,-4661.0,1.0,17.0,32.0
18.145175457000732,,,-2397.0,-3052.0,-3819.0,1.0,14.0,37.0
18.16558074951172,,,-3453.0,-2438.0,-2549.0,2.0,9.0,37.0
18.186083555221558,,,-5066.0,-811.0,501.0,2.0,-3.0,20.0
18.20657753944397,,,-5180.0,-776.0,1515.0,0.0,-8.0,2.0
18.227096557617188,,,-4969.0,-1274.0,2176.0,-1.0,-12.0,-10.0
18.24763536453247,,,-4669.0,-1564.0,3305.0,0.0,-17.0,-21.0
18.26811647415161,,,-4536.0,-1471.0,3802.0,1.0,-18.0,-30.0
18.288621425628662,,,-4498.0,-1434.0,4368.0,0.0,-21.0,-36.0
18.309006214141846,,,-4870.0,-884.0,5595.0,-10.0,-29.0,-51.0
18.32957124710083,,,-5142.0,-271.0,6257.0,-17.0,-31.0,-52.0
18.349878549575806,,,-4988.0,700.0,6921.0,-24.0,-31.0,-57.0
18.370495557785034,,,-4832.0,686.0,6714.0,-21.0,-33.0,-67.0
18.390772104263306,,,-5047.0,956.0,6283.0,-21.0,-37.0,-78.0
18.411340475082397,,,-4972.0,1923.0,4492.0,-29.0,-38.0,-99.0
18.431803941726685,,,-3809.0,1967.0,3090.0,-32.0,-38.0,-107.0
18.45241117477417,,,-2067.0,1727.0,1775.0,-29.0,-42.0,-109.0
18.4728364944458,,,852.0,2021.0,287.0,-4.0,-59.0,-71.0
18.493364095687866,,,1521.0,3117.0,-530.0,9.0,-58.0,-54.0
18.513726711273193,,,2099.0,4640.0,-1246.0,11.0,-51.0,-62.0
18.534339427947998,,,5584.0,7942.0,213.0,-17.0,-41.0,-122.0
18.554700136184692,,,7830.0,7144.0,2294.0,-30.0,-48.0,-136.0
18.57524585723877,,,9025.0,4416.0,3788.0,-18.0,-40.0,-120.0
18.595643281936646,,,7277.0,1692.0,4545.0,-2.0,-14.0,-35.0
18.616120100021362,,,5768.0,1471.0,3771.0,-1.0,-9.0,-2.0
18.636687517166138,,,2139.0,1178.0,681.0,1.0,-1.0,17.0
18.657125234603882,,,230.0,946.0,-1167.0,7.0,-4.0,14.0
18.67754316329956,,,-1571.0,745.0,-2979.0,12.0,-11.0,11.0
18.698190927505493,,,-4340.0,1163.0,-6059.0,12.0,-27.0,-7.0
18.718478441238403,,,-5043.0,1817.0,-6952.0,0.0,-31.0,-26.0
18.738991498947144,,,-5177.0,2319.0,-7086.0,-11.0,-37.0,-43.0
18.759397506713867,,,-4080.0,2402.0,-6202.0,-16.0,-45.0,-51.0
18.779984951019287,,,-3267.0,2478.0,-5359.0,-13.0,-48.0,-52.0
18.800429344177246,,,-2282.0,3090.0,-4293.0,-12.0,-50.0,-55.0
18.820908784866333,,,1250.0,5121.0,-1255.0,-24.0,-48.0,-74.0
18.841455698013306,,,2848.0,5048.0,888.0,-26.0,-48.0,-91.0
18.862026929855347,,,3436.0,2894.0,3930.0,-15.0,-34.0,-78.0
18.88250494003296,,,3672.0,3061.0,4886.0,-20.0,-29.0,-52.0
18.902780055999756,,,4122.0,3169.0,5355.0,-28.0,-25.0,-32.0
18.92337942123413,,,3417.0,2244.0,4333.0,-15.0,-7.0,-17.0
18.943778038024902,,,2798.0,2677.0,3614.0,-5.0,-1.0,-16.0
18.964494943618774,,,2336.0,3376.0,2861.0,-3.0,1.0,-16.0
18.98093581199646,,,1388.0,3560.0,1165.0,-8.0,4.0,-24.0
19.00117540359497,,,704.0,3176.0,506.0,-7.0,4.0,-27.0
19.02155828475952,,,17.0,2837.0,-114.0,-3.0,3.0,-24.0
19.04231595993042,,,-830.0,2522.0,-1237.0,-1.0,2.0,-14.0
19.062773942947388,,,-954.0,2562.0,-1491.0,-4.0,1.0,-13.0
19.083101272583008,,,-867.0,2693.0,-1376.0,-6.0,0.0,-17.0
19.103477001190186,,,-713.0,2802.0,-651.0,-8.0,-3.0,-24.0
19.12388014793396,,,-820.0,2607.0,-327.0,-7.0,-3.0,-27.0
19.14446496963501,,,-1183.0,2185.0,592.0,-10.0,2.0,-30.0
19.165163278579712,,,-1408.0,1993.0,1104.0,-11.0,4.0,-28.0
19.185524940490723,,,-1662.0,1900.0,1501.0,-10.0,7.0,-25.0
19.206066846847534,,,-2060.0,2294.0,2218.0,-9.0,11.0,-29.0
19.226179361343384,,,-2327.0,2136.0,2423.0,-10.0,10.0,-33.0
19.24677562713623,,,-2740.0,1614.0,2452.0,-9.0,11.0,-33.0
19.267162084579468,,,-3472.0,1457.0,2143.0,-4.0,12.0,-14.0
19.28771662712097,,,-3496.0,2005.0,2040.0,-2.0,13.0,-6.0
19.308417558670044,,,-3323.0,2696.0,2049.0,-2.0,13.0,-1.0
19.328922510147095,,,-2950.0,3538.0,2107.0,-6.0,12.0,0.0
19.349231719970703,,,-3100.0,3420.0,2067.0,-6.0,10.0,0.0
19.369896411895752,,,-3735.0,2908.0,1579.0,-4.0,6.0,7.0
19.390233516693115,,,-3948.0,2750.0,1163.0,-3.0,6.0,11.0
19.410728454589844,,,-4064.0,2653.0,710.0,-3.0,5.0,11.0
19.431153059005737,,,-4000.0,2679.0,-4.0,-4.0,2.0,3.0
19.45166563987732,,,-3854.0,2772.0,-222.0,-5.0,0.0,-5.0
19.472094535827637,,,-3640.0,2747.0,-369.0,-8.0,-3.0,-11.0
19.492758750915527,,,-3024.0,2276.0,-514.0,-12.0,-3.0,-14.0
19.51289939880371,,,-2697.0,2134.0,-460.0,-12.0,-1.0,-15.0
19.533456087112427,,,-2399.0,2134.0,-279.0,-14.0,0.0,-14.0
19.553932905197144,,,-1935.0,2088.0,379.0,-17.0,-1.0,-15.0
19.574405431747437,,,-1724.0,1810.0,738.0,-17.0,-4.0,-13.0
19.59484577178955,,,-1310.0,1559.0,957.0,-14.0,-7.0,-11.0
19.615379095077515,,,439.0,2124.0,799.0,-11.0,-15.0,-40.0
19.635756731033325,,,1524.0,2517.0,616.0,-14.0,-21.0,-53.0
19.65635657310486,,,2274.0,1902.0,297.0,-26.0,-24.0,-78.0
19.676816940307617,,,1928.0,1061.0,430.0,-28.0,-23.0,-75.0
19.697163105010986,,,1469.0,280.0,769.0,-25.0,-20.0,-56.0
19.71758508682251,,,1133.0,-245.0,1161.0,-18.0,-16.0,-30.0
19.73819899559021,,,968.0,-420.0,1317.0,-8.0,-13.0,-11.0
19.758540391921997,,,969.0,-204.0,953.0,-1.0,-12.0,-8.0
19.77907633781433,,,827.0,332.0,-497.0,5.0,-12.0,-42.0
19.799695253372192,,,596.0,386.0,-1056.0,4.0,-15.0,-58.0
19.820167064666748,,,358.0,368.0,-1397.0,2.0,-17.0,-64.0
19.84057927131653,,,185.0,509.0,-1516.0,-1.0,-18.0,-61.0
19.861440420150757,,,203.0,837.0,-1517.0,-6.0,-18.0,-52.0
19.881829738616943,,,494.0,1710.0,-1177.0,-22.0,-15.0,-19.0
19.90236496925354,,,744.0,1908.0,-892.0,-30.0,-11.0,-8.0
19.922728538513184,,,811.0,2028.0,-636.0,-36.0,-6.0,-10.0
19.943105697631836,,,383.0,2195.0,-55.0,-41.0,0.0,-27.0
19.963645219802856,,,8.0,2122.0,299.0,-40.0,3.0,-39.0
19.984148740768433,,,-722.0,1609.0,593.0,-36.0,10.0,-60.0
20.00462055206299,,,-1076.0,1239.0,534.0,-30.0,14.0,-62.0
20.025111198425293,,,-1381.0,1004.0,607.0,-23.0,17.0,-54.0
20.04564929008484,,,-1954.0,981.0,1140.0,-13.0,14.0,-24.0
20.066221714019775,,,-2060.0,753.0,1263.0,-8.0,12.0,-17.0
20.086694478988647,,,-2080.0,614.0,1262.0,-6.0,9.0,-17.0
20.106987237930298,,,-1924.0,583.0,1116.0,-2.0,3.0,-16.0
20.1275577545166,,,-1814.0,630.0,1127.0,1.0,3.0,-14.0
20.14820694923401,,,-1564.0,646.0,942.0,3.0,4.0,-8.0
20.16865301132202,,,-643.0,365.0,478.0,4.0,13.0,-8.0
20.189048767089844,,,-494.0,426.0,640.0,5.0,12.0,-9.0
20.209645986557007,,,-584.0,536.0,850.0,7.0,9.0,0.0
20.229910373687744,,,-785.0,927.0,1085.0,14.0,8.0,12.0
20.25049924850464,,,-850.0,1074.0,1187.0,18.0,8.0,11.0
20.270903825759888,,,-625.0,1371.0,1840.0,26.0,3.0,4.0
20.291377305984497,,,-312.0,1521.0,2216.0,29.0,-2.0,-4.0
20.31201958656311,,,-112.0,1806.0,2519.0,31.0,-3.0,-11.0
20.33232617378235,,,-203.0,2488.0,2778.0,30.0,-7.0,-18.0
20.352921962738037,,,-842.0,4155.0,3096.0,27.0,-16.0,-3.0
20.373528003692627,,,-1004.0,4813.0,3031.0,25.0,-23.0,13.0
20.393871784210205,,,-1119.0,5319.0,1780.0,16.0,-36.0,20.0
20.414120197296143,,,-1280.0,5255.0,823.0,14.0,-41.0,16.0
20.43462109565735,,,-1399.0,4957.0,-143.0,11.0,-43.0,13.0
20.45520043373108,,,-1228.0,4091.0,-1284.0,3.0,-39.0,2.0
20.4755642414093,,,-1013.0,3769.0,-1479.0,1.0,-40.0,-4.0
20.496216297149658,,,-411.0,3288.0,-1923.0,-3.0,-47.0,-13.0
20.516510248184204,,,133.0,2972.0,-2129.0,-8.0,-51.0,-14.0
20.537013053894043,,,775.0,2559.0,-2295.0,-14.0,-53.0,-12.0
20.55755639076233,,,1803.0,2483.0,-1776.0,-25.0,-59.0,0.0
20.57816767692566,,,2552.0,2667.0,-1107.0,-27.0,-61.0,10.0
20.59852910041809,,,3477.0,2576.0,-564.0,-28.0,-52.0,24.0
20.619038105010986,,,4332.0,2246.0,37.0,-32.0,-32.0,33.0
20.63942575454712,,,4219.0,2206.0,346.0,-33.0,-27.0,24.0
20.660076141357422,,,4050.0,2362.0,850.0,-31.0,-24.0,19.0
20.68063259124756,,,4057.0,2770.0,1608.0,-21.0,-6.0,3.0
20.701030015945435,,,4002.0,3023.0,1830.0,-11.0,2.0,-16.0
20.721516370773315,,,3861.0,3211.0,1758.0,-7.0,6.0,-39.0
20.742168188095093,,,3540.0,2789.0,1804.0,-11.0,11.0,-67.0
20.762303590774536,,,3410.0,2145.0,2129.0,-7.0,12.0,-67.0
20.77886414527893,,,2681.0,630.0,2433.0,6.0,11.0,-59.0
20.799187660217285,,,1869.0,-59.0,2422.0,15.0,11.0,-50.0
20.81976342201233,,,1125.0,-456.0,2218.0,25.0,15.0,-35.0
20.840173482894897,,,460.0,-647.0,1516.0,34.0,24.0,3.0
20.86073327064514,,,294.0,-651.0,1279.0,41.0,30.0,11.0
20.88133955001831,,,263.0,-628.0,1290.0,47.0,34.0,19.0
20.901840448379517,,,302.0,-725.0,1249.0,57.0,36.0,38.0
20.92234754562378,,,7.0,-1023.0,827.0,62.0,38.0,39.0
20.942763566970825,,,-563.0,-1378.0,178.0,67.0,40.0,31.0
20.963180780410767,,,-1795.0,-1861.0,-985.0,73.0,53.0,28.0
20.983736038208008,,,-2076.0,-1888.0,-598.0,70.0,60.0,38.0
21.004094123840332,,,-1384.0,-932.0,2669.0,65.0,68.0,64.0
21.024558067321777,,,-892.0,-74.0,4248.0,66.0,63.0,72.0
21.044954776763916,,,-385.0,486.0,5168.0,62.0,60.0,76.0
21.06557583808899,,,-457.0,812.0,5660.0,33.0,69.0,77.0
21.086091995239258,,,-896.0,438.0,5761.0,22.0,71.0,99.0
21.10645604133606,,,-1183.0,-17.0,5689.0,21.0,75.0,131.0
21.12690258026123,,,-523.0,609.0,4309.0,24.0,71.0,164.0
21.147361993789673,,,2.0,1623.0,3064.0,22.0,68.0,160.0
21.167781829833984,,,129.0,2923.0,1822.0,20.0,61.0,150.0
21.188149213790894,,,-651.0,4803.0,-354.0,19.0,53.0,123.0
21.20856499671936,,,-1732.0,5219.0,-997.0,19.0,49.0,111.0
21.229441165924072,,,-3109.0,5341.0,-1603.0,18.0,43.0,102.0
21.24993133544922,,,-5633.0,5033.0,-3535.0,12.0,33.0,93.0
21.270159482955933,,,-6462.0,5126.0,-4814.0,4.0,30.0,73.0
21.298794746398926,,,-1883.0,3209.0,-9701.0,-21.0,55.0,-18.0
21.31942844390869,,,-1223.0,830.0,-10254.0,-15.0,60.0,-23.0
21.33985447883606,,,-304.0,-570.0,-10313.0,-13.0,73.0,-2.0
21.36039686203003,,,297.0,-857.0,-9878.0,-14.0,89.0,32.0
21.380929470062256,,,8.0,552.0,-8160.0,-18.0,101.0,73.0
21.401368141174316,,,-547.0,1261.0,-7346.0,-23.0,100.0,71.0
21.42185640335083,,,-1190.0,1605.0,-6812.0,-28.0,99.0,61.0
21.44238018989563,,,-2103.0,1179.0,-6328.0,-33.0,87.0,38.0
21.462813138961792,,,-2262.0,697.0,-6170.0,-31.0,82.0,38.0
21.483324766159058,,,-2483.0,13.0,-5741.0,-28.0,81.0,49.0
21.503695487976074,,,-3279.0,-2323.0,-3236.0,-15.0,64.0,65.0
21.524266481399536,,,-3406.0,-3829.0,-326.0,-21.0,53.0,48.0
21.544884204864502,,,-2685.0,-6167.0,3428.0,-35.0,52.0,27.0
21.56519913673401,,,-1050.0,-12786.0,7498.0,-31.0,82.0,23.0
21.585745096206665,,,-633.0,-14328.0,8470.0,-5.0,91.0,-24.0
21.60613489151001,,,2954.0,-14242.0,9000.0,-19.0,57.0,-66.0
21.626533269882202,,,4719.0,-13632.0,8481.0,-31.0,27.0,3.0
21.6469943523407,,,5012.0,-12636.0,7354.0,-23.0,26.0,69.0
21.667491674423218,,,2439.0,-10181.0,6246.0,5.0,26.0,173.0
21.68768286705017,,,741.0,-8665.0,6356.0,11.0,20.0,189.0
21.70819640159607,,,-817.0,-7257.0,6128.0,12.0,11.0,172.0
21.728824377059937,,,-2630.0,-5095.0,3468.0,6.0,-2.0,110.0
21.749509572982788,,,-2819.0,-4475.0,1583.0,-1.0,-3.0,81.0
21.7697913646698,,,-2548.0,-4240.0,-15.0,-10.0,-6.0,60.0
21.79019045829773,,,-1425.0,-3951.0,-2100.0,-14.0,-17.0,35.0
21.810712337493896,,,-1028.0,-3753.0,-2730.0,-8.0,-19.0,28.0
21.83110475540161,,,-729.0,-3228.0,-2645.0,1.0,-15.0,24.0
21.8515841960907,,,-631.0,-2954.0,-2106.0,2.0,-14.0,26.0
21.872089862823486,,,-458.0,-2628.0,-1434.0,2.0,-13.0,24.0
21.89298987388611,,,319.0,-2396.0,-591.0,5.0,-11.0,11.0
21.913373708724976,,,750.0,-2670.0,-692.0,16.0,-9.0,7.0
21.9339816570282,,,831.0,-2999.0,-1003.0,29.0,-5.0,7.0
21.954359531402588,,,260.0,-3058.0,-996.0,41.0,4.0,4.0
21.974658012390137,,,104.0,-2808.0,-623.0,40.0,9.0,1.0
21.995076417922974,,,90.0,-2705.0,-262.0,39.0,13.0,-3.0
22.015402793884277,,,-365.0,-3107.0,297.0,39.0,14.0,-6.0
22.035907983779907,,,-831.0,-3335.0,497.0,39.0,12.0,-4.0
22.056370973587036,,,-1184.0,-3407.0,620.0,36.0,8.0,-6.0
22.07690405845642,,,-1350.0,-3195.0,768.0,28.0,4.0,-27.0
22.097270488739014,,,-1326.0,-3344.0,666.0,24.0,0.0,-44.0
22.11791491508484,,,-1209.0,-3705.0,249.0,18.0,-7.0,-61.0
22.13835096359253,,,-1077.0,-3593.0,310.0,14.0,-9.0,-63.0
22.158774375915527,,,-872.0,-3390.0,497.0,10.0,-10.0,-67.0
22.179075956344604,,,-608.0,-3146.0,802.0,2.0,-18.0,-72.0
22.195698738098145,,,-544.0,-2934.0,1007.0,-1.0,-22.0,-70.0
22.21613907814026,,,-402.0,-2650.0,1114.0,-5.0,-27.0,-67.0
22.236696004867554,,,93.0,-2053.0,866.0,-13.0,-31.0,-67.0
22.257059812545776,,,283.0,-1712.0,816.0,-16.0,-32.0,-67.0
22.277585983276367,,,563.0,-1365.0,900.0,-19.0,-32.0,-66.0
22.298099279403687,,,1527.0,-1484.0,843.0,-23.0,-33.0,-59.0
22.31898021697998,,,1894.0,-1866.0,687.0,-22.0,-31.0,-48.0
22.339349269866943,,,1842.0,-1821.0,673.0,-15.0,-27.0,-19.0
22.359961986541748,,,1712.0,-1203.0,806.0,-14.0,-25.0,-12.0
22.380324840545654,,,1696.0,-700.0,813.0,-13.0,-22.0,-12.0
22.400903940200806,,,1569.0,-566.0,614.0,-11.0,-19.0,-14.0
22.42126965522766,,,1353.0,-555.0,760.0,-9.0,-18.0,-9.0
22.441875457763672,,,1108.0,-456.0,891.0,-6.0,-17.0,-1.0
22.46644425392151,,,600.0,-104.0,764.0,-1.0,-14.0,4.0
22.486936330795288,,,318.0,41.0,645.0,-1.0,-14.0,3.0
22.507258653640747,,,-71.0,402.0,477.0,-1.0,-15.0,-3.0
22.527863264083862,,,-142.0,537.0,434.0,-1.0,-14.0,-6.0
22.548267126083374,,,-114.0,530.0,398.0,-3.0,-13.0,-8.0
22.56884455680847,,,210.0,314.0,482.0,-5.0,-11.0,-6.0
22.589200019836426,,,411.0,188.0,528.0,-5.0,-10.0,-2.0
22.609851121902466,,,573.0,49.0,506.0,-4.0,-8.0,1.0
22.630126237869263,,,776.0,-238.0,424.0,-4.0,-6.0,7.0
22.650582313537598,,,820.0,-318.0,437.0,-1.0,-4.0,11.0
22.67105984687805,,,759.0,-251.0,526.0,1.0,-1.0,14.0
22.691482305526733,,,587.0,-137.0,601.0,3.0,2.0,15.0
22.711934089660645,,,361.0,-78.0,639.0,3.0,3.0,13.0
22.732484340667725,,,64.0,-148.0,727.0,2.0,2.0,10.0
22.75296139717102,,,19.0,-242.0,690.0,2.0,2.0,9.0
22.773322582244873,,,-53.0,-326.0,611.0,4.0,3.0,9.0
22.79394507408142,,,-337.0,-249.0,588.0,5.0,5.0,6.0
22.81467318534851,,,-446.0,-94.0,650.0,4.0,6.0,4.0
22.83488965034485,,,-517.0,-7.0,736.0,4.0,6.0,2.0
22.855400800704956,,,-575.0,-193.0,796.0,1.0,3.0,-1.0
22.875925064086914,,,-531.0,-277.0,848.0,-1.0,1.0,0.0
22.896424770355225,,,-416.0,-315.0,871.0,-2.0,0.0,1.0
22.916974544525146,,,-143.0,-415.0,876.0,-2.0,0.0,-2.0
22.937238454818726,,,-54.0,-465.0,900.0,-2.0,-1.0,-3.0
22.957841873168945,,,4.0,-615.0,985.0,-1.0,-2.0,-1.0
22.978351831436157,,,-29.0,-679.0,981.0,0.0,-3.0,0.0
22.9987850189209,,,-114.0,-637.0,976.0,0.0,-3.0,0.0
23.019190788269043,,,-281.0,-389.0,902.0,-2.0,-5.0,-3.0
23.039791345596313,,,-266.0,-330.0,828.0,-3.0,-5.0,-4.0
23.060124397277832,,,-172.0,-340.0,784.0,-4.0,-5.0,-4.0
23.080596208572388,,,63.0,-345.0,827.0,-1.0,-4.0,0.0
23.101124048233032,,,80.0,-309.0,838.0,-1.0,-4.0,1.0
23.121615886688232,,,73.0,-275.0,842.0,-2.0,-3.0,2.0
23.14220905303955,,,41.0,-125.0,915.0,-1.0,-3.0,4.0
23.158486366271973,,,55.0,-109.0,909.0,0.0,-2.0,4.0
23.179033756256104,,,-14.0,-145.0,874.0,1.0,-4.0,1.0
23.199464321136475,,,-51.0,-158.0,856.0,0.0,-4.0,0.0
23.219722986221313,,,-39.0,-206.0,840.0,-2.0,-4.0,-1.0
23.240344524383545,,,119.0,-377.0,792.0,-4.0,-4.0,-1.0
23.260836839675903,,,108.0,-332.0,871.0,-3.0,-1.0,1.0
23.281314611434937,,,-45.0,-239.0,948.0,0.0,1.0,4.0
23.30187201499939,,,-630.0,-26.0,753.0,8.0,1.0,2.0
23.322409629821777,,,-870.0,194.0,600.0,11.0,-1.0,-3.0
23.342873096466064,,,-984.0,548.0,533.0,9.0,-5.0,-9.0
23.363306045532227,,,-626.0,1142.0,547.0,-3.0,-12.0,-17.0
23.383774995803833,,,-226.0,1190.0,579.0,-6.0,-12.0,-15.0
23.404414176940918,,,186.0,1027.0,584.0,-5.0,-9.0,-8.0
23.42476987838745,,,534.0,614.0,613.0,4.0,-1.0,17.0
23.445342540740967,,,344.0,675.0,688.0,6.0,1.0,26.0
23.465720653533936,,,-226.0,890.0,578.0,8.0,3.0,27.0
23.486223697662354,,,-562.0,1001.0,575.0,12.0,3.0,22.0
23.506610870361328,,,-872.0,1123.0,582.0,16.0,5.0,16.0
23.527080059051514,,,-1127.0,1116.0,515.0,15.0,5.0,1.0
23.54768991470337,,,-984.0,938.0,570.0,14.0,3.0,-6.0
23.56821060180664,,,-750.0,675.0,582.0,13.0,3.0,-13.0
23.588455200195312,,,-391.0,164.0,541.0,10.0,6.0,-21.0
23.609097003936768,,,-262.0,-37.0,638.0,7.0,9.0,-25.0
23.629575490951538,,,-133.0,-212.0,883.0,6.0,12.0,-30.0
23.650113344192505,,,143.0,-675.0,1466.0,1.0,14.0,-40.0
23.67057514190674,,,413.0,-1039.0,1728.0,0.0,14.0,-45.0
23.691046714782715,,,1158.0,-2329.0,1863.0,1.0,12.0,-46.0
23.71140766143799,,,1456.0,-2914.0,1854.0,2.0,11.0,-39.0
23.731899738311768,,,1647.0,-3123.0,1891.0,4.0,12.0,-27.0
23.752239227294922,,,1412.0,-2840.0,1863.0,11.0,15.0,-4.0
23.77285885810852,,,1011.0,-2574.0,1647.0,13.0,13.0,0.0
23.793472290039062,,,628.0,-2317.0,1273.0,12.0,9.0,1.0
23.813926696777344,,,207.0,-2003.0,609.0,7.0,3.0,-2.0
23.83435297012329,,,137.0,-1929.0,602.0,7.0,2.0,-1.0
23.855068922042847,,,85.0,-1897.0,725.0,8.0,1.0,3.0
23.87539029121399,,,-128.0,-1776.0,848.0,8.0,-2.0,5.0
23.895812511444092,,,-238.0,-1656.0,856.0,6.0,-5.0,3.0
23.916412353515625,,,-267.0,-1571.0,809.0,5.0,-8.0,0.0
23.936843156814575,,,-62.0,-1396.0,871.0,3.0,-8.0,-2.0
23.95717477798462,,,-16.0,-1344.0,952.0,4.0,-6.0,-1.0
23.977830410003662,,,-261.0,-928.0,1211.0,3.0,-6.0,2.0
23.998348474502563,,,-376.0,-585.0,1425.0,1.0,-8.0,3.0
24.018754959106445,,,-303.0,-347.0,1659.0,-1.0,-11.0,2.0
24.03895401954651,,,259.0,-120.0,1890.0,3.0,-14.0,8.0
24.059711456298828,,,332.0,80.0,1715.0,6.0,-13.0,13.0
24.08009672164917,,,241.0,353.0,1375.0,9.0,-12.0,16.0
24.100672006607056,,,-12.0,911.0,987.0,13.0,-9.0,16.0
24.12105107307434,,,-112.0,1254.0,1082.0,14.0,-9.0,15.0
24.141634464263916,,,-207.0,1644.0,1308.0,13.0,-9.0,15.0
24.161981344223022,,,-201.0,1901.0,1511.0,14.0,-5.0,9.0
24.18245029449463,,,-187.0,1577.0,1350.0,14.0,-4.0,3.0
24.202929735183716,,,-295.0,979.0,663.0,16.0,-6.0,2.0
24.22330117225647,,,-323.0,1034.0,291.0,16.0,-7.0,4.0
24.239771604537964,,,-280.0,1277.0,29.0,15.0,-7.0,3.0
24.260236263275146,,,-14.0,1656.0,-101.0,11.0,-6.0,-1.0
24.280733823776245,,,143.0,1641.0,-82.0,8.0,-4.0,1.0
24.301108360290527,,,262.0,1455.0,-36.0,7.0,-1.0,5.0
24.32173252105713,,,328.0,826.0,93.0,6.0,4.0,13.0
24.342275142669678,,,286.0,615.0,139.0,6.0,5.0,15.0
24.36262845993042,,,182.0,536.0,206.0,6.0,6.0,15.0
24.383002519607544,,,-110.0,481.0,318.0,5.0,6.0,9.0
24.403430938720703,,,-256.0,463.0,392.0,4.0,6.0,5.0
24.42375373840332,,,-348.0,444.0,467.0,2.0,6.0,2.0
24.444506883621216,,,-272.0,318.0,657.0,-2.0,6.0,1.0
24.464914798736572,,,-234.0,183.0,717.0,-2.0,7.0,2.0
24.485297918319702,,,-283.0,-139.0,732.0,-2.0,8.0,-1.0
24.505629301071167,,,-293.0,-311.0,769.0,-2.0,8.0,-2.0
24.526211500167847,,,-347.0,-394.0,832.0,-1.0,7.0,-3.0
24.546576023101807,,,-435.0,-307.0,799.0,-3.0,3.0,-6.0
24.567307472229004,,,-340.0,-218.0,778.0,-4.0,1.0,-8.0
24.58772587776184,,,-154.0,-176.0,774.0,-5.0,0.0,-10.0
24.608263731002808,,,245.0,-321.0,915.0,-6.0,1.0,-5.0
24.62857723236084,,,336.0,-391.0,1009.0,-5.0,1.0,0.0
24.649100303649902,,,317.0,-397.0,1046.0,-3.0,2.0,5.0
24.6695454120636,,,203.0,-361.0,1065.0,-2.0,3.0,7.0
24.690083742141724,,,59.0,-325.0,1054.0,-2.0,2.0,5.0
24.7105233669281,,,-158.0,-305.0,1017.0,-3.0,1.0,-1.0
24.731098175048828,,,-100.0,-321.0,1000.0,-2.0,0.0,-3.0
24.751481294631958,,,-7.0,-367.0,985.0,-1.0,0.0,-3.0
24.772051334381104,,,7.0,-411.0,863.0,1.0,1.0,0.0
24.792375564575195,,,-47.0,-311.0,816.0,1.0,1.0,1.0
24.813029050827026,,,-58.0,-189.0,803.0,0.0,1.0,1.0
24.83351421356201,,,102.0,-141.0,853.0,0.0,0.0,0.0
24.854058742523193,,,170.0,-164.0,846.0,0.0,1.0,1.0
24.874470710754395,,,172.0,-135.0,843.0,1.0,2.0,3.0
24.894800901412964,,,71.0,-17.0,876.0,1.0,2.0,3.0
24.915183544158936,,,16.0,17.0,912.0,1.0,2.0,2.0
24.93576693534851,,,18.0,-21.0,944.0,0.0,2.0,1.0
24.956097841262817,,,169.0,-185.0,975.0,0.0,3.0,4.0
24.976734399795532,,,230.0,-226.0,943.0,1.0,3.0,5.0
24.997318983078003,,,113.0,-190.0,774.0,2.0,4.0,4.0
25.017802953720093,,,4.0,-130.0,734.0,2.0,4.0,3.0
25.038174152374268,,,-62.0,-93.0,749.0,2.0,4.0,2.0
25.05875587463379,,,80.0,-211.0,865.0,2.0,4.0,4.0
25.079242944717407,,,108.0,-241.0,867.0,2.0,5.0,5.0
25.09959578514099,,,19.0,-140.0,830.0,3.0,5.0,5.0
25.120104551315308,,,5.0,-101.0,813.0,2.0,5.0,5.0
25.140669107437134,,,4.0,-81.0,823.0,2.0,5.0,4.0
25.16117215156555,,,26.0,-92.0,904.0,2.0,5.0,6.0
25.18162202835083,,,30.0,-115.0,903.0,2.0,6.0,6.0
25.20208740234375,,,31.0,-132.0,893.0,1.0,6.0,5.0
25.222476959228516,,,48.0,-133.0,889.0,1.0,6.0,5.0
25.242872953414917,,,28.0,-136.0,870.0,1.0,6.0,5.0
25.263596773147583,,,-1.0,-130.0,838.0,1.0,6.0,4.0
25.283931016921997,,,-71.0,-96.0,837.0,0.0,5.0,2.0
25.30449080467224,,,-71.0,-72.0,865.0,-1.0,5.0,2.0
25.324928760528564,,,22.0,-141.0,879.0,-3.0,4.0,1.0
25.345428228378296,,,91.0,-200.0,872.0,-3.0,4.0,1.0
25.36593794822693,,,148.0,-236.0,881.0,-3.0,4.0,2.0
25.386306762695312,,,128.0,-223.0,886.0,-3.0,4.0,2.0
25.40672755241394,,,130.0,-203.0,887.0,-4.0,3.0,1.0
25.427260160446167,,,162.0,-221.0,908.0,-4.0,3.0,1.0
25.44780707359314,,,259.0,-310.0,961.0,-5.0,2.0,1.0
25.468228340148926,,,228.0,-325.0,949.0,-5.0,2.0,2.0
25.488722562789917,,,236.0,-344.0,912.0,-6.0,2.0,4.0
25.50916290283203,,,286.0,-439.0,866.0,-7.0,2.0,5.0
25.529605627059937,,,263.0,-449.0,838.0,-7.0,2.0,5.0
25.55016565322876,,,252.0,-455.0,792.0,-7.0,1.0,6.0
25.570616245269775,,,368.0,-584.0,692.0,-9.0,1.0,7.0
25.591124057769775,,,346.0,-591.0,688.0,-9.0,2.0,9.0
25.611517667770386,,,100.0,-395.0,755.0,-8.0,2.0,9.0
25.63206195831299,,,-8.0,-268.0,824.0,-8.0,1.0,6.0
25.652440786361694,,,-53.0,-214.0,889.0,-8.0,1.0,4.0
25.672860622406006,,,65.0,-303.0,838.0,-8.0,0.0,3.0
25.693546772003174,,,77.0,-296.0,809.0,-8.0,0.0,3.0
25.713890314102173,,,60.0,-245.0,814.0,-8.0,-1.0,3.0
25.734480142593384,,,148.0,-162.0,870.0,-9.0,-3.0,3.0
25.754937410354614,,,191.0,-190.0,824.0,-9.0,-4.0,3.0
25.775330543518066,,,197.0,-233.0,784.0,-9.0,-4.0,3.0
25.795920372009277,,,205.0,-268.0,747.0,-9.0,-4.0,4.0
25.8162841796875,,,233.0,-300.0,736.0,-9.0,-5.0,3.0
25.836769580841064,,,233.0,-307.0,744.0,-10.0,-5.0,3.0
25.857285022735596,,,231.0,-264.0,736.0,-10.0,-5.0,4.0
25.877862691879272,,,272.0,-226.0,744.0,-11.0,-5.0,3.0
25.8982195854187,,,413.0,-278.0,806.0,-11.0,-4.0,2.0
25.91871428489685,,,477.0,-389.0,798.0,-10.0,-3.0,4.0
25.939202308654785,,,464.0,-500.0,765.0,-9.0,-2.0,5.0
25.95964550971985,,,284.0,-477.0,703.0,-8.0,-2.0,5.0
25.980196952819824,,,233.0,-398.0,710.0,-8.0,-2.0,3.0
26.000607013702393,,,301.0,-351.0,722.0,-9.0,-3.0,1.0
26.01709771156311,,,520.0,-427.0,734.0,-6.0,-1.0,4.0
26.03748059272766,,,576.0,-505.0,695.0,-4.0,0.0,7.0
26.058013439178467,,,521.0,-494.0,677.0,-2.0,0.0,9.0
26.078424215316772,,,294.0,-189.0,763.0,-1.0,-1.0,8.0
26.09898090362549,,,296.0,-81.0,784.0,-1.0,-2.0,6.0
26.119475603103638,,,584.0,-151.0,732.0,1.0,-1.0,4.0
26.139941692352295,,,723.0,-247.0,704.0,3.0,-1.0,6.0
26.16034984588623,,,797.0,-241.0,692.0,4.0,-1.0,9.0
26.180926084518433,,,709.0,138.0,830.0,3.0,-1.0,13.0
26.201279878616333,,,659.0,350.0,961.0,2.0,-1.0,14.0
26.22187852859497,,,646.0,447.0,1099.0,1.0,-1.0,15.0
26.24219298362732,,,676.0,260.0,1233.0,0.0,-1.0,20.0
26.26281189918518,,,707.0,66.0,1159.0,1.0,0.0,23.0
26.283198356628418,,,729.0,-139.0,1049.0,2.0,0.0,24.0
26.30379033088684,,,518.0,-351.0,939.0,6.0,2.0,23.0
26.324227571487427,,,252.0,-421.0,902.0,8.0,4.0,19.0
26.344666481018066,,,-169.0,-752.0,848.0,8.0,5.0,8.0
26.36516761779785,,,-211.0,-915.0,907.0,8.0,4.0,7.0
26.385716676712036,,,-221.0,-936.0,941.0,7.0,3.0,7.0
26.406099796295166,,,-165.0,-665.0,886.0,4.0,1.0,3.0
26.42664337158203,,,43.0,-687.0,798.0,2.0,2.0,0.0
26.447131872177124,,,187.0,-933.0,614.0,3.0,3.0,-1.0
26.46756625175476,,,-130.0,-1412.0,552.0,3.0,6.0,1.0
26.488183975219727,,,-387.0,-1299.0,927.0,0.0,7.0,5.0
26.508511304855347,,,-492.0,-1029.0,1430.0,-3.0,8.0,6.0
26.529032707214355,,,-379.0,-737.0,2063.0,-3.0,6.0,-2.0
26.549423694610596,,,-326.0,-767.0,2101.0,-4.0,4.0,-8.0
26.569961309432983,,,-291.0,-847.0,2084.0,-4.0,3.0,-12.0
26.590310096740723,,,-132.0,-1069.0,2101.0,-4.0,4.0,-12.0
26.61082673072815,,,-60.0,-1178.0,2099.0,-2.0,3.0,-9.0
26.631459951400757,,,-76.0,-885.0,1919.0,-2.0,0.0,-5.0
26.651814699172974,,,-2.0,-573.0,1805.0,-3.0,-2.0,-7.0
26.672388315200806,,,147.0,-334.0,1686.0,-2.0,-5.0,-11.0
26.69286561012268,,,444.0,-177.0,1450.0,1.0,-10.0,-23.0
26.713266611099243,,,614.0,-116.0,1390.0,2.0,-11.0,-26.0
26.733776330947876,,,869.0,-33.0,1374.0,3.0,-12.0,-26.0
26.754287481307983,,,1503.0,157.0,1371.0,5.0,-13.0,-12.0
26.77474308013916,,,1710.0,256.0,1241.0,7.0,-12.0,-1.0
26.795063972473145,,,1722.0,361.0,969.0,11.0,-10.0,9.0
26.815627098083496,,,1296.0,747.0,418.0,14.0,-7.0,16.0
26.836079359054565,,,1105.0,902.0,327.0,16.0,-7.0,17.0
26.85668110847473,,,754.0,1026.0,374.0,17.0,-6.0,16.0
26.877196073532104,,,579.0,1040.0,335.0,15.0,-5.0,19.0
26.897746086120605,,,454.0,941.0,202.0,14.0,-4.0,19.0
26.918170928955078,,,214.0,751.0,125.0,16.0,-2.0,17.0
26.938607215881348,,,76.0,807.0,282.0,16.0,-3.0,15.0
26.959170818328857,,,25.0,787.0,378.0,16.0,-3.0,14.0
26.979425191879272,,,66.0,522.0,432.0,15.0,1.0,7.0
27.000073194503784,,,73.0,402.0,539.0,14.0,3.0,7.0
27.020467281341553,,,49.0,322.0,670.0,13.0,4.0,7.0
27.04084277153015,,,-30.0,172.0,843.0,12.0,4.0,3.0
27.061411142349243,,,-40.0,96.0,818.0,11.0,3.0,0.0
27.08198595046997,,,-31.0,46.0,759.0,10.0,3.0,-4.0
27.098363876342773,,,17.0,-43.0,731.0,10.0,4.0,-7.0
27.11878800392151,,,19.0,-91.0,767.0,10.0,4.0,-6.0
27.139257431030273,,,-122.0,-145.0,798.0,9.0,6.0,-4.0
27.159671545028687,,,-238.0,-220.0,832.0,9.0,7.0,-5.0
27.180232524871826,,,-397.0,-401.0,908.0,10.0,9.0,-7.0
27.2006413936615,,,-600.0,-919.0,1012.0,8.0,10.0,-7.0
27.22116708755493,,,-586.0,-1151.0,1064.0,6.0,10.0,-7.0
27.2416512966156,,,-544.0,-1223.0,1119.0,6.0,9.0,-7.0
27.262218952178955,,,-465.0,-1117.0,1282.0,6.0,7.0,-7.0
27.28263783454895,,,-389.0,-1231.0,1268.0,7.0,7.0,-9.0
27.303175449371338,,,-355.0,-1500.0,1209.0,8.0,8.0,-9.0
27.323655128479004,,,-456.0,-1854.0,1332.0,9.0,9.0,-3.0
27.344179391860962,,,-513.0,-1713.0,1481.0,8.0,8.0,-2.0
27.36459493637085,,,-387.0,-1641.0,1534.0,6.0,7.0,-4.0
27.385152578353882,,,39.0,-1785.0,1610.0,6.0,7.0,-4.0
27.405458211898804,,,205.0,-1741.0,1703.0,7.0,7.0,2.0
27.426142692565918,,,534.0,-1738.0,1505.0,7.0,7.0,10.0
27.446529626846313,,,598.0,-1848.0,1278.0,8.0,8.0,10.0
27.467106342315674,,,524.0,-1911.0,1136.0,10.0,8.0,11.0
27.491533279418945,,,630.0,-1675.0,1124.0,6.0,4.0,19.0
27.512112855911255,,,965.0,-1414.0,1127.0,5.0,4.0,28.0
27.532551050186157,,,1279.0,-503.0,1160.0,12.0,4.0,46.0
27.553109884262085,,,1067.0,70.0,1111.0,17.0,4.0,49.0
27.57350754737854,,,682.0,732.0,1147.0,19.0,2.0,47.0
27.594075441360474,,,328.0,2337.0,1793.0,18.0,-6.0,34.0
27.61452078819275,,,790.0,2703.0,1957.0,14.0,-9.0,20.0
27.63492774963379,,,1550.0,2655.0,1953.0,10.0,-8.0,5.0
27.655487537384033,,,2233.0,2633.0,2419.0,15.0,-1.0,10.0
27.675995111465454,,,2009.0,2775.0,2438.0,21.0,1.0,23.0
27.69643759727478,,,1601.0,2740.0,1982.0,23.0,2.0,29.0
27.71695899963379,,,669.0,2628.0,593.0,18.0,3.0,21.0
27.737358808517456,,,350.0,2710.0,119.0,14.0,5.0,14.0
27.757884979248047,,,603.0,2576.0,-88.0,5.0,8.0,6.0
27.77825140953064,,,967.0,2301.0,19.0,4.0,9.0,5.0
27.79877734184265,,,1212.0,2019.0,77.0,5.0,10.0,7.0
27.815094232559204,,,1237.0,1703.0,113.0,1.0,10.0,15.0
27.835620880126953,,,1127.0,1591.0,138.0,-2.0,10.0,14.0
27.85616898536682,,,982.0,1378.0,138.0,-3.0,10.0,11.0
27.876644134521484,,,811.0,622.0,142.0,-5.0,10.0,4.0
27.89707589149475,,,826.0,352.0,287.0,-6.0,11.0,3.0
27.917630672454834,,,795.0,212.0,449.0,-6.0,12.0,5.0
27.9380099773407,,,616.0,-45.0,490.0,-5.0,13.0,6.0
27.95852518081665,,,453.0,-187.0,472.0,-5.0,12.0,5.0
27.979031801223755,,,329.0,-330.0,480.0,-7.0,12.0,4.0
27.999523639678955,,,334.0,-590.0,590.0,-11.0,11.0,1.0
28.019968032836914,,,243.0,-627.0,780.0,-12.0,12.0,0.0
28.040409326553345,,,66.0,-715.0,1302.0,-9.0,14.0,-1.0
28.06090235710144,,,30.0,-770.0,1454.0,-9.0,12.0,-2.0
28.08141303062439,,,6.0,-768.0,1451.0,-12.0,9.0,-4.0
28.101924419403076,,,305.0,-809.0,1342.0,-21.0,6.0,-12.0
28.12235999107361,,,668.0,-812.0,1545.0,-22.0,7.0,-8.0
28.142842769622803,,,1103.0,-931.0,1737.0,-21.0,9.0,1.0
28.1633141040802,,,1306.0,-1247.0,1562.0,-12.0,11.0,19.0
28.183777809143066,,,998.0,-1279.0,1256.0,-8.0,11.0,22.0
28.204137086868286,,,551.0,-1250.0,959.0,-6.0,10.0,18.0
28.224735260009766,,,-407.0,-1116.0,840.0,-4.0,8.0,5.0
28.245440244674683,,,-611.0,-1065.0,902.0,-4.0,5.0,0.0
28.266254663467407,,,-594.0,-821.0,1010.0,-2.0,0.0,-6.0
28.286622047424316,,,-625.0,-648.0,1040.0,-2.0,-2.0,-9.0
28.306981563568115,,,-589.0,-481.0,1104.0,-4.0,-4.0,-12.0
28.327335596084595,,,-103.0,-371.0,1286.0,-6.0,-7.0,-14.0
28.347951412200928,,,196.0,-375.0,1355.0,-6.0,-7.0,-12.0
28.368305683135986,,,405.0,-417.0,1401.0,-7.0,-7.0,-8.0
28.388854265213013,,,695.0,-483.0,1380.0,-7.0,-7.0,-1.0
28.409265995025635,,,684.0,-535.0,1311.0,-7.0,-6.0,0.0
28.429720878601074,,,614.0,-572.0,1269.0,-6.0,-7.0,1.0
28.450218439102173,,,579.0,-592.0,1210.0,-6.0,-8.0,2.0
28.470625400543213,,,548.0,-602.0,1136.0,-5.0,-9.0,1.0
28.4911470413208,,,323.0,-399.0,1161.0,-6.0,-11.0,-1.0
28.511725664138794,,,316.0,-257.0,1332.0,-7.0,-12.0,-2.0
28.53229069709778,,,411.0,-194.0,1500.0,-7.0,-13.0,-1.0
28.55274772644043,,,616.0,-147.0,1642.0,-10.0,-14.0,2.0
28.573147535324097,,,672.0,-52.0,1765.0,-11.0,-13.0,2.0
28.593488216400146,,,842.0,-16.0,1928.0,-12.0,-11.0,3.0
28.614219665527344,,,1658.0,-471.0,1944.0,-13.0,-6.0,11.0
28.63462543487549,,,1967.0,-872.0,1746.0,-8.0,-2.0,16.0
28.65480089187622,,,1898.0,-1162.0,1525.0,-4.0,1.0,19.0
28.675411224365234,,,1499.0,-1473.0,1037.0,-2.0,3.0,16.0
28.695967197418213,,,1602.0,-1674.0,798.0,-3.0,4.0,15.0
28.71639895439148,,,1815.0,-2096.0,426.0,0.0,12.0,27.0
28.736844301223755,,,1687.0,-2100.0,412.0,2.0,16.0,36.0
28.75724458694458,,,1437.0,-2044.0,437.0,4.0,20.0,40.0
28.77762460708618,,,1015.0,-2119.0,566.0,6.0,26.0,37.0
28.798134565353394,,,919.0,-2144.0,666.0,6.0,27.0,33.0
28.81861662864685,,,948.0,-2187.0,696.0,5.0,29.0,29.0
28.83921718597412,,,1227.0,-2349.0,570.0,9.0,34.0,33.0
28.85964322090149,,,1237.0,-2303.0,326.0,10.0,35.0,37.0
28.880210399627686,,,1148.0,-2204.0,-35.0,10.0,36.0,34.0
28.900458574295044,,,1192.0,-2262.0,-238.0,7.0,35.0,19.0
28.92092800140381,,,1547.0,-2485.0,-131.0,5.0,35.0,18.0
28.941334009170532,,,2387.0,-2677.0,-82.0,1.0,36.0,29.0
28.96199870109558,,,2761.0,-2498.0,-84.0,0.0,34.0,32.0
28.982412576675415,,,2931.0,-2263.0,188.0,-2.0,33.0,35.0
29.002973794937134,,,2753.0,-1896.0,1379.0,-10.0,37.0,32.0
29.02338695526123,,,2756.0,-1720.0,2356.0,-15.0,40.0,30.0
29.043971300125122,,,2842.0,-1515.0,3662.0,-18.0,43.0,34.0
29.064353704452515,,,3287.0,-1237.0,5919.0,-21.0,49.0,62.0
29.084953784942627,,,3528.0,-1313.0,6234.0,-19.0,53.0,76.0
29.105281114578247,,,3430.0,-1460.0,6025.0,-13.0,54.0,83.0
29.12590789794922,,,1963.0,-1484.0,4745.0,0.0,45.0,79.0
29.14637517929077,,,1136.0,-1440.0,4040.0,5.0,40.0,70.0
29.166829824447632,,,331.0,-1278.0,3732.0,9.0,33.0,60.0
29.187167167663574,,,-1047.0,-132.0,3768.0,1.0,15.0,27.0
29.207741498947144,,,-965.0,662.0,3666.0,-5.0,8.0,10.0
29.22810411453247,,,-152.0,1840.0,3628.0,1.0,5.0,11.0
29.24872922897339,,,34.0,2135.0,3522.0,6.0,6.0,16.0
29.2690749168396,,,120.0,2280.0,3035.0,7.0,4.0,14.0
29.28967261314392,,,287.0,2687.0,1707.0,-6.0,-4.0,0.0
29.310103178024292,,,511.0,2893.0,1127.0,-12.0,-6.0,2.0
29.330527305603027,,,745.0,2948.0,544.0,-16.0,-7.0,10.0
29.351094484329224,,,909.0,2713.0,-829.0,-26.0,-5.0,18.0
29.371489763259888,,,1098.0,2401.0,-1491.0,-32.0,-5.0,18.0
29.392060041427612,,,1501.0,1866.0,-2215.0,-37.0,-6.0,17.0
29.408305644989014,,,2604.0,69.0,-3969.0,-42.0,-9.0,25.0
29.42892026901245,,,2954.0,-1021.0,-4798.0,-40.0,-9.0,35.0
29.449313163757324,,,2599.0,-2885.0,-5581.0,-29.0,-11.0,57.0
29.469966411590576,,,1986.0,-3315.0,-5415.0,-21.0,-17.0,57.0
29.49021625518799,,,1316.0,-3399.0,-4827.0,-17.0,-22.0,44.0
29.51079750061035,,,584.0,-3130.0,-2692.0,-20.0,-28.0,5.0
29.53132462501526,,,573.0,-2854.0,-960.0,-24.0,-29.0,-1.0
29.551828622817993,,,741.0,-2234.0,1022.0,-22.0,-29.0,6.0
29.57219433784485,,,1631.0,-632.0,3680.0,-13.0,-24.0,15.0
29.592772006988525,,,1969.0,-281.0,4416.0,-19.0,-25.0,13.0
29.61324691772461,,,2108.0,43.0,5017.0,-24.0,-25.0,15.0
29.633677005767822,,,2391.0,634.0,5352.0,-25.0,-19.0,6.0
29.654051780700684,,,2561.0,620.0,5166.0,-24.0,-16.0,-6.0
29.674664735794067,,,2638.0,501.0,5100.0,-23.0,-13.0,-15.0
29.69509196281433,,,2379.0,-60.0,4879.0,-20.0,-5.0,-23.0
29.71565842628479,,,2035.0,-512.0,4541.0,-17.0,-2.0,-26.0
29.735989332199097,,,1097.0,-1374.0,3322.0,-11.0,1.0,-40.0
29.75655245780945,,,514.0,-1629.0,2644.0,-8.0,2.0,-50.0
29.776939392089844,,,-146.0,-1491.0,2116.0,-6.0,3.0,-58.0
29.79754376411438,,,-935.0,-212.0,2009.0,0.0,6.0,-65.0
29.81791114807129,,,-1031.0,502.0,2146.0,1.0,2.0,-68.0
29.838521242141724,,,-1038.0,1275.0,2224.0,0.0,-2.0,-71.0
29.858920335769653,,,-498.0,2815.0,1886.0,1.0,-7.0,-75.0
29.879450798034668,,,-39.0,3268.0,1741.0,7.0,-7.0,-80.0
29.89984965324402,,,145.0,3524.0,1720.0,11.0,-9.0,-83.0
29.920424461364746,,,61.0,3798.0,1762.0,11.0,-10.0,-79.0
29.940858125686646,,,-46.0,4128.0,1768.0,5.0,-12.0,-71.0
29.961493253707886,,,411.0,4355.0,1212.0,-2.0,-15.0,-60.0
29.981889247894287,,,609.0,4102.0,747.0,1.0,-13.0,-53.0
30.006484508514404,,,540.0,3697.0,212.0,3.0,-10.0,-42.0
30.02691388130188,,,294.0,2712.0,-1005.0,0.0,-5.0,-29.0
30.04730224609375,,,363.0,2106.0,-1551.0,-3.0,-4.0,-27.0
30.06778836250305,,,645.0,658.0,-2410.0,-6.0,-5.0,-18.0
30.08847427368164,,,839.0,-226.0,-2808.0,-4.0,-9.0,-15.0
30.108814001083374,,,913.0,-1125.0,-3254.0,-2.0,-12.0,-16.0
30.129313468933105,,,502.0,-2439.0,-3753.0,-1.0,-12.0,-21.0
30.145756721496582,,,240.0,-2794.0,-3653.0,1.0,-12.0,-21.0
30.166202783584595,,,-206.0,-2933.0,-3021.0,3.0,-13.0,-23.0
30.186587810516357,,,-877.0,-2842.0,-1763.0,3.0,-16.0,-30.0
30.20698070526123,,,-1557.0,-2462.0,-79.0,1.0,-17.0,-35.0
30.227376222610474,,,-2065.0,-1787.0,1812.0,1.0,-15.0,-40.0
30.247965812683105,,,-1963.0,-872.0,4485.0,-2.0,-9.0,-53.0
30.268306493759155,,,-1594.0,-1123.0,4820.0,-4.0,-9.0,-57.0
30.2888503074646,,,-1217.0,-1479.0,4760.0,-7.0,-10.0,-59.0
30.309298515319824,,,-555.0,-1442.0,4096.0,-13.0,-14.0,-57.0
30.329828023910522,,,-406.0,-1173.0,3870.0,-15.0,-14.0,-51.0
30.350272178649902,,,-669.0,-662.0,3849.0,-18.0,-11.0,-32.0
30.370783805847168,,,-1083.0,-415.0,3817.0,-21.0,-9.0,-25.0
30.39129328727722,,,-1506.0,-214.0,3572.0,-24.0,-8.0,-22.0
30.411688327789307,,,-1867.0,-125.0,2640.0,-24.0,-2.0,-30.0
30.432159423828125,,,-2040.0,-33.0,2364.0,-20.0,0.0,-39.0
30.45269775390625,,,-2295.0,188.0,2226.0,-17.0,-2.0,-50.0
30.473092794418335,,,-2502.0,1002.0,1910.0,-15.0,-13.0,-76.0
30.493629932403564,,,-2236.0,1512.0,1775.0,-15.0,-21.0,-86.0
30.514068365097046,,,-1768.0,1950.0,1681.0,-14.0,-28.0,-90.0
30.534589529037476,,,-623.0,2277.0,1380.0,-13.0,-36.0,-76.0
30.555039405822754,,,-273.0,2355.0,1303.0,-11.0,-35.0,-59.0
30.57552719116211,,,-127.0,3063.0,1377.0,-5.0,-30.0,-26.0
30.596014499664307,,,-142.0,3428.0,1349.0,-4.0,-29.0,-19.0
30.616533041000366,,,-108.0,3522.0,1201.0,-4.0,-31.0,-21.0
30.63697075843811,,,96.0,2901.0,515.0,-8.0,-36.0,-27.0
30.657594442367554,,,206.0,2474.0,156.0,-8.0,-36.0,-24.0
30.677964210510254,,,290.0,2086.0,-91.0,-7.0,-33.0,-16.0
30.698423624038696,,,309.0,1832.0,-209.0,-5.0,-30.0,-6.0
30.718913555145264,,,153.0,1442.0,-399.0,0.0,-24.0,8.0
30.739376068115234,,,-3.0,1250.0,-478.0,1.0,-24.0,10.0
30.759904146194458,,,-187.0,991.0,-514.0,0.0,-22.0,7.0
30.780334949493408,,,-206.0,934.0,-459.0,-1.0,-19.0,4.0
30.800808906555176,,,-189.0,836.0,-363.0,0.0,-14.0,0.0
30.821544408798218,,,-124.0,673.0,132.0,5.0,-5.0,-5.0
30.842093467712402,,,-29.0,749.0,411.0,8.0,-2.0,-3.0
30.862585306167603,,,-29.0,961.0,667.0,8.0,0.0,-3.0
30.883102893829346,,,-8.0,995.0,680.0,8.0,4.0,-7.0
30.903533220291138,,,90.0,947.0,709.0,8.0,8.0,-8.0
30.92407989501953,,,211.0,743.0,954.0,13.0,17.0,-1.0
30.944611310958862,,,45.0,703.0,1035.0,16.0,21.0,0.0
30.965075969696045,,,-205.0,735.0,1030.0,19.0,24.0,1.0
30.98535990715027,,,-605.0,784.0,835.0,18.0,33.0,-7.0
31.0058696269989,,,-728.0,632.0,770.0,15.0,36.0,-14.0
31.026135683059692,,,-734.0,390.0,709.0,13.0,38.0,-16.0
31.046786546707153,,,-673.0,-24.0,604.0,10.0,38.0,-14.0
31.06710147857666,,,-697.0,-155.0,539.0,7.0,37.0,-13.0
31.08754539489746,,,-816.0,-521.0,273.0,6.0,35.0,-6.0
31.108161211013794,,,-923.0,-687.0,143.0,7.0,33.0,-3.0
31.128841638565063,,,-1057.0,-814.0,55.0,9.0,31.0,-2.0
31.149278163909912,,,-1395.0,-1131.0,101.0,14.0,25.0,-3.0
31.169800758361816,,,-1628.0,-1255.0,245.0,17.0,21.0,-3.0
31.19024658203125,,,-1970.0,-1159.0,532.0,19.0,18.0,-2.0
31.20644211769104,,,-3094.0,-632.0,1578.0,20.0,7.0,-12.0
31.22692608833313,,,-3558.0,-639.0,2081.0,23.0,1.0,-20.0
31.247652053833008,,,-3988.0,-772.0,2484.0,27.0,-3.0,-27.0
31.268120527267456,,,-4927.0,-350.0,2967.0,21.0,-17.0,-38.0
31.288593292236328,,,-5156.0,225.0,2962.0,11.0,-26.0,-42.0
31.309000968933105,,,-5212.0,754.0,2891.0,0.0,-35.0,-45.0
31.329575061798096,,,-4750.0,1340.0,2698.0,-19.0,-46.0,-46.0
31.34991693496704,,,-4342.0,1302.0,2625.0,-25.0,-48.0,-45.0
31.370381116867065,,,-3417.0,1070.0,2503.0,-27.0,-48.0,-31.0
31.3906672000885,,,-2922.0,650.0,2210.0,-26.0,-49.0,-20.0
31.411160707473755,,,-2600.0,157.0,1785.0,-24.0,-51.0,-9.0
31.431607246398926,,,-2598.0,-12.0,802.0,-27.0,-56.0,2.0
31.45209503173828,,,-2776.0,319.0,437.0,-29.0,-58.0,4.0
31.47255539894104,,,-2965.0,844.0,238.0,-33.0,-59.0,2.0
31.493027210235596,,,-3064.0,1928.0,425.0,-41.0,-59.0,-12.0
31.513557195663452,,,-2889.0,2127.0,675.0,-43.0,-58.0,-22.0
31.534356117248535,,,-2614.0,2127.0,818.0,-45.0,-56.0,-32.0
31.554654836654663,,,-2082.0,2008.0,843.0,-50.0,-48.0,-46.0
31.57515287399292,,,-1901.0,1971.0,796.0,-52.0,-46.0,-54.0
31.595500946044922,,,-1612.0,1954.0,676.0,-57.0,-42.0,-75.0
31.616042137145996,,,-1424.0,1927.0,650.0,-60.0,-40.0,-81.0
31.636576890945435,,,-1138.0,1847.0,640.0,-63.0,-38.0,-84.0
31.657349348068237,,,-344.0,1490.0,691.0,-61.0,-31.0,-83.0
31.677658081054688,,,-85.0,1200.0,647.0,-60.0,-28.0,-83.0
31.698234796524048,,,7.0,904.0,605.0,-59.0,-24.0,-81.0
31.718682527542114,,,47.0,666.0,801.0,-56.0,-18.0,-73.0
31.73904037475586,,,146.0,685.0,1116.0,-55.0,-16.0,-67.0
31.75967001914978,,,305.0,797.0,1490.0,-54.0,-15.0,-63.0
31.780153036117554,,,789.0,1189.0,2089.0,-55.0,-13.0,-57.0
31.800548791885376,,,1135.0,1229.0,2057.0,-50.0,-10.0,-53.0
31.82109045982361,,,1406.0,943.0,1713.0,-40.0,-5.0,-54.0
31.841522932052612,,,1249.0,118.0,1335.0,-13.0,4.0,-59.0
31.86244559288025,,,889.0,-6.0,1581.0,-1.0,6.0,-48.0
31.882745504379272,,,1187.0,1088.0,3438.0,11.0,8.0,-6.0
31.9032244682312,,,2576.0,1785.0,4961.0,17.0,12.0,19.0
31.923731088638306,,,4065.0,1515.0,5787.0,30.0,19.0,39.0
31.944122552871704,,,3825.0,-1405.0,5135.0,74.0,36.0,28.0
31.96471095085144,,,2565.0,-1700.0,4698.0,96.0,37.0,36.0
31.985148429870605,,,1594.0,-1120.0,4165.0,111.0,34.0,73.0
32.00572085380554,,,1361.0,208.0,1730.0,134.0,22.0,158.0
32.02605605125427,,,1367.0,953.0,-68.0,140.0,15.0,171.0
32.04654788970947,,,1039.0,2163.0,-1979.0,137.0,7.0,178.0
32.06696319580078,,,-908.0,4185.0,-5890.0,104.0,0.0,161.0
32.08752703666687,,,-2579.0,3886.0,-7110.0,101.0,0.0,137.0
32.10782814025879,,,-5122.0,1941.0,-7546.0,101.0,14.0,62.0
32.128565073013306,,,-5939.0,1342.0,-6845.0,100.0,14.0,28.0
32.149094104766846,,,-7101.0,1423.0,-5524.0,94.0,7.0,8.0
32.1697461605072,,,-10077.0,3614.0,213.0,58.0,-12.0,-3.0
32.190064668655396,,,-9763.0,5111.0,4389.0,54.0,-10.0,-7.0
32.210487365722656,,,-8154.0,5276.0,7934.0,63.0,-5.0,-20.0
32.230839252471924,,,-6014.0,3857.0,11051.0,57.0,-15.0,-31.0
32.25151872634888,,,-5374.0,4380.0,12018.0,42.0,-12.0,-36.0
32.2719407081604,,,-4369.0,4877.0,12481.0,30.0,-5.0,-27.0
32.28835988044739,,,-2799.0,4609.0,12310.0,24.0,8.0,33.0
32.30861306190491,,,-3035.0,4565.0,11017.0,25.0,14.0,53.0
32.32929086685181,,,-3520.0,4549.0,9152.0,19.0,24.0,45.0
32.34964632987976,,,-3362.0,3274.0,6090.0,2.0,30.0,0.0
32.37031888961792,,,-2887.0,2511.0,4614.0,2.0,22.0,-22.0
32.39073967933655,,,-2033.0,3409.0,1691.0,12.0,20.0,-70.0
32.41121172904968,,,-1228.0,4106.0,688.0,3.0,19.0,-89.0
32.43152070045471,,,-213.0,3756.0,261.0,-23.0,9.0,-109.0
32.45215606689453,,,1324.0,734.0,224.0,-59.0,-15.0,-99.0
32.47256517410278,,,897.0,-313.0,-301.0,-55.0,-23.0,-68.0
32.49312710762024,,,-165.0,-1054.0,-1524.0,-51.0,-24.0,-53.0
32.517597913742065,,,-2814.0,-1271.0,-4217.0,-44.0,-25.0,-51.0
32.538166761398315,,,-3620.0,-788.0,-5333.0,-43.0,-32.0,-60.0
32.55838322639465,,,-3669.0,185.0,-6407.0,-53.0,-43.0,-96.0
32.5789008140564,,,-3020.0,60.0,-5905.0,-58.0,-50.0,-108.0
32.59921979904175,,,-2305.0,-510.0,-4918.0,-56.0,-53.0,-105.0
32.61972117424011,,,-1248.0,-1970.0,-3116.0,-38.0,-64.0,-66.0
32.640315771102905,,,-859.0,-1770.0,-2753.0,-37.0,-72.0,-44.0
32.66073966026306,,,-211.0,-474.0,-2025.0,-46.0,-71.0,-27.0
32.68100190162659,,,2133.0,2586.0,2522.0,-56.0,-46.0,-20.0
32.7015700340271,,,1940.0,2073.0,4564.0,-45.0,-35.0,-28.0
32.72200107574463,,,265.0,1132.0,5577.0,-36.0,-31.0,-20.0
32.742618560791016,,,-2292.0,2345.0,6447.0,-29.0,-38.0,-10.0
32.76297974586487,,,-3075.0,3284.0,5717.0,-28.0,-46.0,-34.0
32.783613443374634,,,-2268.0,5374.0,3620.0,-42.0,-54.0,-105.0
32.804105281829834,,,57.0,5706.0,3182.0,-53.0,-55.0,-136.0
32.82457113265991,,,2792.0,4537.0,3574.0,-61.0,-56.0,-152.0
32.84495997428894,,,5279.0,123.0,5237.0,-45.0,-57.0,-100.0
32.865538120269775,,,5562.0,-893.0,4698.0,-38.0,-55.0,-69.0
32.88628053665161,,,5407.0,-1614.0,3533.0,-34.0,-51.0,-54.0
32.906564474105835,,,4573.0,-1733.0,1961.0,-22.0,-40.0,-33.0
32.927069902420044,,,4787.0,-832.0,1455.0,-12.0,-35.0,-17.0
32.94766187667847,,,5043.0,180.0,613.0,-2.0,-31.0,-10.0
32.96812200546265,,,5295.0,1413.0,-954.0,-6.0,-33.0,-41.0
32.98854398727417,,,5139.0,1232.0,-1553.0,-15.0,-34.0,-68.0
33.004905462265015,,,3954.0,337.0,-2085.0,-22.0,-28.0,-83.0
33.02548360824585,,,3173.0,146.0,-1867.0,-20.0,-20.0,-73.0
33.04579448699951,,,2720.0,247.0,-1413.0,-19.0,-14.0,-58.0
33.066224575042725,,,2358.0,226.0,-937.0,-20.0,-7.0,-33.0
33.08659076690674,,,2073.0,127.0,-1056.0,-21.0,-2.0,-34.0
33.107035636901855,,,1894.0,356.0,-1107.0,-20.0,2.0,-36.0
33.12753200531006,,,2197.0,1670.0,-791.0,-15.0,4.0,-33.0
33.14815306663513,,,2375.0,2143.0,-630.0,-13.0,5.0,-35.0
33.168487310409546,,,2379.0,2417.0,-532.0,-13.0,4.0,-45.0
33.18907284736633,,,2169.0,2644.0,-199.0,-15.0,-2.0,-56.0
33.2094988822937,,,2255.0,2687.0,-50.0,-17.0,-5.0,-53.0
33.23000693321228,,,2365.0,2628.0,27.0,-19.0,-6.0,-50.0
33.25037479400635,,,2359.0,2356.0,91.0,-22.0,-6.0,-49.0
33.27088809013367,,,2142.0,1828.0,221.0,-23.0,-5.0,-49.0
33.29129648208618,,,1364.0,879.0,644.0,-18.0,-2.0,-39.0
33.3118371963501,,,1172.0,895.0,799.0,-16.0,0.0,-30.0
33.33226823806763,,,1187.0,1052.0,902.0,-17.0,3.0,-24.0
33.35279822349548,,,903.0,1171.0,983.0,-14.0,6.0,-23.0
33.37349724769592,,,472.0,1375.0,883.0,-11.0,7.0,-27.0
33.39394760131836,,,21.0,1832.0,742.0,-9.0,6.0,-30.0
33.414443016052246,,,-439.0,2692.0,510.0,-9.0,7.0,-24.0
33.43490743637085,,,-484.0,2855.0,488.0,-9.0,9.0,-22.0
33.45540165901184,,,-493.0,2934.0,577.0,-6.0,10.0,-22.0
33.476032733917236,,,-554.0,3064.0,677.0,-1.0,6.0,-27.0
33.49657082557678,,,-556.0,3154.0,660.0,-1.0,5.0,-28.0
33.51698875427246,,,-398.0,3084.0,628.0,-2.0,8.0,-28.0
33.537487506866455,,,-519.0,2835.0,721.0,0.0,11.0,-27.0
33.55812430381775,,,-722.0,2712.0,1001.0,2.0,11.0,-25.0
33.5784707069397,,,-602.0,3033.0,1757.0,-1.0,7.0,-25.0
33.59897708892822,,,-814.0,2971.0,2042.0,-4.0,10.0,-22.0
33.6193904876709,,,-1506.0,2707.0,2189.0,-3.0,12.0,-13.0
33.639939069747925,,,-2881.0,2886.0,2326.0,2.0,9.0,14.0
33.66049361228943,,,-3006.0,3614.0,2599.0,1.0,0.0,18.0
33.680774211883545,,,-2950.0,4231.0,2928.0,1.0,-7.0,17.0
33.70143699645996,,,-2972.0,4516.0,3058.0,6.0,-17.0,14.0
33.721736431121826,,,-2807.0,4400.0,2755.0,9.0,-21.0,11.0
33.74246668815613,,,-2489.0,4228.0,2310.0,11.0,-24.0,9.0
33.7626211643219,,,-1622.0,3749.0,1406.0,6.0,-26.0,13.0
33.783257246017456,,,-1195.0,3557.0,1258.0,1.0,-27.0,15.0
33.80352306365967,,,-370.0,2949.0,1096.0,-6.0,-29.0,20.0
33.82421898841858,,,-75.0,2536.0,997.0,-9.0,-28.0,23.0
33.84465312957764,,,138.0,2143.0,1006.0,-10.0,-26.0,29.0
33.86526536941528,,,322.0,1789.0,1023.0,-10.0,-25.0,37.0
33.88545370101929,,,545.0,1450.0,980.0,-7.0,-23.0,47.0
33.90593600273132,,,931.0,1144.0,915.0,-3.0,-22.0,56.0
33.926387786865234,,,2198.0,797.0,621.0,5.0,-15.0,59.0
33.946831703186035,,,2762.0,929.0,429.0,6.0,-12.0,49.0
33.967233657836914,,,3135.0,1123.0,264.0,6.0,-10.0,33.0
33.987691164016724,,,3390.0,1177.0,72.0,1.0,-4.0,3.0
34.008222341537476,,,3345.0,902.0,34.0,-2.0,-1.0,-6.0
34.02864408493042,,,2877.0,34.0,-140.0,-4.0,5.0,-9.0
34.04912829399109,,,2515.0,-317.0,-302.0,-4.0,8.0,-10.0
34.06971859931946,,,2180.0,-539.0,-476.0,-3.0,12.0,-10.0
34.08611249923706,,,1517.0,-374.0,-889.0,-4.0,21.0,-10.0
34.106515645980835,,,1057.0,-22.0,-1000.0,-5.0,22.0,-18.0
34.12677240371704,,,594.0,445.0,-910.0,-7.0,19.0,-30.0
34.14740180969238,,,-246.0,1203.0,-793.0,-19.0,18.0,-48.0
34.167815923690796,,,-914.0,1416.0,-864.0,-22.0,23.0,-42.0
34.188377380371094,,,-1558.0,1702.0,-901.0,-20.0,29.0,-27.0
34.20887780189514,,,-1467.0,2816.0,-470.0,-16.0,35.0,-13.0
34.22933864593506,,,-866.0,3283.0,-47.0,-18.0,36.0,-17.0
34.24988865852356,,,-416.0,3529.0,386.0,-18.0,37.0,-28.0
34.27041459083557,,,-432.0,3801.0,1300.0,-18.0,34.0,-61.0
34.29083967208862,,,-521.0,3774.0,1763.0,-23.0,30.0,-77.0
34.311227560043335,,,-590.0,3060.0,2612.0,-29.0,17.0,-98.0
34.33177423477173,,,-611.0,2337.0,2421.0,-24.0,8.0,-96.0
34.35227394104004,,,-689.0,1428.0,1931.0,-10.0,4.0,-88.0
34.372807264328,,,-870.0,133.0,1269.0,11.0,-3.0,-66.0
34.39331769943237,,,-756.0,-225.0,813.0,13.0,-4.0,-49.0
34.41375946998596,,,-513.0,-536.0,182.0,15.0,0.0,-22.0
34.433966875076294,,,42.0,-531.0,-512.0,18.0,9.0,20.0
34.45448160171509,,,354.0,-416.0,-676.0,15.0,9.0,29.0
34.47491717338562,,,687.0,-336.0,-863.0,10.0,11.0,34.0
34.49556756019592,,,1219.0,18.0,-408.0,4.0,14.0,25.0
34.51591110229492,,,1217.0,207.0,176.0,5.0,19.0,19.0
34.53673076629639,,,397.0,945.0,1006.0,15.0,36.0,-16.0
34.55723285675049,,,-202.0,1574.0,1114.0,9.0,37.0,-42.0
34.57776927947998,,,-732.0,1815.0,1187.0,1.0,31.0,-50.0
34.59825849533081,,,-1101.0,1156.0,1468.0,-7.0,23.0,-24.0
34.618783712387085,,,-1250.0,1001.0,1661.0,-3.0,22.0,-1.0
34.63930797576904,,,-1500.0,1266.0,1809.0,0.0,18.0,15.0
34.65979480743408,,,-2073.0,1909.0,1746.0,4.0,10.0,19.0
34.68017315864563,,,-2146.0,1987.0,1609.0,6.0,7.0,11.0
34.700552225112915,,,-2007.0,1944.0,1445.0,7.0,4.0,2.0
34.72100591659546,,,-1465.0,1402.0,1001.0,9.0,-2.0,-1.0
34.7414972782135,,,-1274.0,1040.0,837.0,11.0,-3.0,5.0
34.761948347091675,,,-1172.0,863.0,727.0,13.0,-6.0,12.0
34.78243017196655,,,-870.0,1037.0,383.0,13.0,-8.0,25.0
34.802942752838135,,,-523.0,1107.0,109.0,13.0,-6.0,25.0
34.82352137565613,,,353.0,1207.0,-285.0,10.0,-5.0,14.0
34.843780755996704,,,668.0,1193.0,-524.0,8.0,-4.0,5.0
34.86454796791077,,,817.0,1101.0,-645.0,6.0,-1.0,-2.0
34.88469886779785,,,627.0,859.0,-121.0,6.0,4.0,-9.0
34.905269145965576,,,365.0,796.0,427.0,7.0,4.0,-9.0
34.92566108703613,,,68.0,784.0,922.0,8.0,3.0,-3.0
34.94643712043762,,,-281.0,844.0,1174.0,12.0,1.0,18.0
34.96689224243164,,,-235.0,983.0,1087.0,13.0,1.0,25.0
34.98742413520813,,,-71.0,1164.0,994.0,13.0,1.0,28.0
35.007723569869995,,,351.0,1488.0,998.0,17.0,-1.0,23.0
35.02838063240051,,,552.0,1540.0,1047.0,19.0,-3.0,20.0
35.04880690574646,,,614.0,1596.0,799.0,19.0,-3.0,18.0
35.073554277420044,,,567.0,1570.0,532.0,18.0,-2.0,20.0
35.0941641330719,,,522.0,1338.0,309.0,18.0,1.0,24.0
35.11446809768677,,,470.0,1009.0,192.0,21.0,6.0,26.0
35.13464641571045,,,328.0,702.0,127.0,22.0,9.0,23.0
35.15531802177429,,,106.0,144.0,153.0,17.0,9.0,18.0
35.17564868927002,,,68.0,-172.0,137.0,12.0,11.0,21.0
35.196065187454224,,,32.0,-477.0,175.0,8.0,14.0,25.0
35.21657037734985,,,141.0,-991.0,778.0,3.0,22.0,48.0
35.23710370063782,,,39.0,-1355.0,911.0,1.0,28.0,61.0
35.25364851951599,,,-334.0,-1885.0,737.0,3.0,38.0,73.0
35.27429461479187,,,-1853.0,-365.0,640.0,5.0,39.0,78.0
35.294647455215454,,,-2436.0,1631.0,567.0,-1.0,27.0,79.0
35.31491756439209,,,-2772.0,3176.0,87.0,-4.0,26.0,79.0
35.33554983139038,,,-2982.0,3880.0,-332.0,-2.0,30.0,69.0
35.35588216781616,,,-2993.0,3909.0,-340.0,-2.0,27.0,54.0
35.3763267993927,,,-2469.0,3960.0,-240.0,-15.0,8.0,19.0
35.397052526474,,,-2138.0,4168.0,-266.0,-25.0,-3.0,13.0
35.417582988739014,,,-1807.0,3877.0,-233.0,-33.0,-8.0,5.0
35.4379985332489,,,-1091.0,1687.0,109.0,-36.0,-6.0,-12.0
35.45821690559387,,,-570.0,345.0,773.0,-32.0,-1.0,-11.0
35.478777170181274,,,57.0,-904.0,1901.0,-23.0,2.0,-5.0
35.49922227859497,,,662.0,-2878.0,3387.0,-6.0,-12.0,-13.0
35.51972484588623,,,572.0,-3253.0,2677.0,-7.0,-20.0,-21.0
35.54023599624634,,,655.0,-3307.0,1655.0,-6.0,-21.0,-15.0
35.56072926521301,,,1753.0,-2615.0,278.0,-1.0,-13.0,9.0
35.58103704452515,,,2292.0,-2152.0,-210.0,1.0,-9.0,17.0
35.60145616531372,,,3162.0,-1450.0,-973.0,1.0,7.0,19.0
35.62228441238403,,,3288.0,-1132.0,-1169.0,-1.0,14.0,10.0
35.642765522003174,,,3097.0,-846.0,-1197.0,-5.0,15.0,0.0
35.66321134567261,,,1738.0,-571.0,-1147.0,-12.0,11.0,-4.0
35.68380832672119,,,871.0,-510.0,-1207.0,-14.0,9.0,3.0
35.7044563293457,,,55.0,-412.0,-1358.0,-13.0,10.0,10.0
35.72453784942627,,,-969.0,-74.0,-1642.0,-10.0,14.0,12.0
35.74499726295471,,,-1171.0,-118.0,-1607.0,-9.0,18.0,7.0
35.765432834625244,,,-1237.0,-249.0,-1198.0,-6.0,23.0,3.0
35.786232233047485,,,-1316.0,-305.0,-420.0,-3.0,27.0,2.0
35.806387424468994,,,-1549.0,-343.0,474.0,3.0,27.0,4.0
35.827035427093506,,,-1899.0,-416.0,1248.0,9.0,26.0,5.0
35.84747529029846,,,-2529.0,-673.0,1963.0,19.0,23.0,0.0
35.86790084838867,,,-2742.0,-903.0,2143.0,25.0,18.0,-4.0
35.888312339782715,,,-2794.0,-1631.0,2807.0,32.0,1.0,-1.0
35.908703088760376,,,-2501.0,-2044.0,2767.0,32.0,-2.0,12.0
35.929301738739014,,,-1934.0,-2353.0,2587.0,30.0,0.0,23.0
35.94966721534729,,,-585.0,-3647.0,3082.0,28.0,4.0,41.0
35.97007632255554,,,-41.0,-4818.0,3535.0,37.0,7.0,53.0
35.99067759513855,,,429.0,-5436.0,3856.0,50.0,11.0,64.0
36.011017084121704,,,1661.0,-4598.0,3619.0,49.0,13.0,101.0
36.03162479400635,,,2155.0,-4492.0,3225.0,45.0,15.0,118.0
36.05190563201904,,,2434.0,-4647.0,2669.0,42.0,14.0,136.0
36.07260346412659,,,2771.0,-4611.0,1589.0,50.0,17.0,190.0
36.09288692474365,,,3042.0,-3817.0,1233.0,56.0,18.0,214.0
36.113540172576904,,,2703.0,-1304.0,553.0,50.0,16.0,216.0
36.13392972946167,,,1698.0,-453.0,301.0,42.0,6.0,211.0
36.15441131591797,,,645.0,60.0,-16.0,31.0,-6.0,209.0
36.175002098083496,,,-789.0,1246.0,-328.0,14.0,-15.0,210.0
36.19583463668823,,,-1490.0,1637.0,-73.0,7.0,-20.0,207.0
36.21603035926819,,,-2092.0,1657.0,385.0,3.0,-27.0,202.0
36.23648166656494,,,-2578.0,1000.0,1507.0,-1.0,-42.0,189.0
36.25676345825195,,,-2646.0,804.0,1915.0,-8.0,-42.0,180.0
36.277740716934204,,,-2929.0,509.0,2294.0,-16.0,-37.0,160.0
36.29824924468994,,,-3185.0,-793.0,3570.0,-29.0,-50.0,114.0
36.3184597492218,,,-2720.0,-1404.0,3750.0,-32.0,-58.0,95.0
36.33475947380066,,,-2080.0,-1517.0,3728.0,-37.0,-59.0,81.0
36.35541081428528,,,-1041.0,-703.0,3739.0,-46.0,-63.0,47.0
36.37570071220398,,,-477.0,-502.0,3407.0,-49.0,-63.0,30.0
36.396241903305054,,,962.0,-1212.0,1817.0,-43.0,-57.0,14.0
36.4166522026062,,,1790.0,-1471.0,1316.0,-40.0,-48.0,5.0
36.43739867210388,,,2733.0,-1497.0,1011.0,-36.0,-40.0,-6.0
36.45781660079956,,,3640.0,-1740.0,562.0,-32.0,-27.0,-16.0
36.478381395339966,,,3510.0,-1904.0,286.0,-32.0,-22.0,-6.0
36.498876333236694,,,3684.0,-2351.0,102.0,-28.0,-18.0,9.0
36.51921010017395,,,4824.0,-3789.0,-516.0,-8.0,-7.0,20.0
36.53958463668823,,,4814.0,-3783.0,-180.0,-4.0,-6.0,18.0
36.56017708778381,,,4216.0,-3102.0,547.0,-5.0,-4.0,10.0
36.58056163787842,,,2710.0,-2121.0,1817.0,-6.0,0.0,-8.0
36.60112953186035,,,2291.0,-1938.0,1927.0,-8.0,1.0,-13.0
36.62153220176697,,,2731.0,-1724.0,1969.0,-9.0,6.0,-18.0
36.642273902893066,,,3204.0,-1887.0,2106.0,-4.0,9.0,-21.0
36.662678956985474,,,3381.0,-2100.0,2228.0,1.0,10.0,-16.0
36.68322134017944,,,2671.0,-1905.0,2618.0,2.0,13.0,6.0
36.7035858631134,,,2170.0,-1654.0,3106.0,0.0,14.0,4.0
36.724021196365356,,,1739.0,-1622.0,3482.0,-3.0,13.0,-4.0
36.74464297294617,,,1722.0,-2120.0,3955.0,5.0,-1.0,-17.0
36.76508665084839,,,1915.0,-2409.0,3950.0,9.0,-8.0,-14.0
36.78567433357239,,,1902.0,-2216.0,3723.0,10.0,-9.0,-12.0
36.80613303184509,,,2043.0,-1443.0,2589.0,10.0,5.0,-21.0
36.826430797576904,,,2155.0,-1358.0,2129.0,11.0,10.0,-21.0
36.847010135650635,,,1809.0,-1539.0,1905.0,8.0,9.0,-9.0
36.86764121055603,,,1095.0,-2024.0,2453.0,6.0,8.0,20.0
36.88783240318298,,,1204.0,-2109.0,3169.0,7.0,8.0,17.0
36.90825653076172,,,859.0,-1753.0,3930.0,0.0,0.0,0.0
36.928807735443115,,,327.0,-1439.0,3977.0,-3.0,-1.0,-8.0
36.94924354553223,,,95.0,-1243.0,4053.0,-5.0,-3.0,-17.0
36.96961498260498,,,412.0,-1316.0,3749.0,-5.0,-3.0,-21.0
36.990057945251465,,,517.0,-1379.0,3929.0,-3.0,-7.0,-24.0
37.01043891906738,,,597.0,-1387.0,4011.0,0.0,-11.0,-26.0
37.03102779388428,,,680.0,-1278.0,3633.0,4.0,-12.0,-26.0
37.05149865150452,,,662.0,-1071.0,3348.0,2.0,-10.0,-27.0
37.0720112323761,,,624.0,-896.0,3169.0,0.0,-10.0,-24.0
37.09244632720947,,,815.0,-1100.0,2875.0,4.0,-6.0,-11.0
37.11284375190735,,,832.0,-1067.0,2938.0,6.0,-7.0,-12.0
37.13344621658325,,,498.0,-710.0,3058.0,8.0,-9.0,-26.0
37.153849363327026,,,350.0,-578.0,2917.0,7.0,-6.0,-26.0
37.174386978149414,,,367.0,-682.0,2753.0,8.0,-2.0,-20.0
37.1947283744812,,,485.0,-933.0,3040.0,6.0,-2.0,-3.0
37.21510601043701,,,275.0,-792.0,3361.0,5.0,-5.0,0.0
37.23567485809326,,,-37.0,-509.0,3585.0,4.0,-7.0,-2.0
37.25598669052124,,,-268.0,-244.0,3375.0,-1.0,-5.0,-10.0
37.276445627212524,,,-57.0,-296.0,3062.0,-1.0,-3.0,-15.0
37.29698872566223,,,223.0,-453.0,2923.0,-1.0,-2.0,-15.0
37.317604780197144,,,339.0,-665.0,3282.0,-3.0,-6.0,-7.0
37.33811378479004,,,221.0,-724.0,3195.0,-2.0,-5.0,-2.0
37.35859704017639,,,250.0,-733.0,3127.0,-2.0,-4.0,-2.0
37.37904095649719,,,575.0,-652.0,3328.0,-2.0,-6.0,-9.0
37.399474143981934,,,509.0,-702.0,3408.0,-2.0,-6.0,-7.0
37.415918827056885,,,135.0,-749.0,3382.0,-3.0,-6.0,-5.0
37.436551332473755,,,163.0,-744.0,3246.0,-3.0,-6.0,-5.0
37.45692205429077,,,313.0,-731.0,3189.0,-2.0,-6.0,-10.0
37.477396965026855,,,529.0,-758.0,3148.0,1.0,-8.0,-14.0
37.49782109260559,,,520.0,-814.0,3046.0,1.0,-6.0,-9.0
37.5184531211853,,,392.0,-743.0,3052.0,1.0,-6.0,-6.0
37.54298377037048,,,67.0,-510.0,3027.0,0.0,-6.0,-5.0
37.56345891952515,,,52.0,-477.0,2906.0,-1.0,-5.0,-7.0
37.58402490615845,,,220.0,-553.0,2620.0,-3.0,-1.0,-2.0
37.60444688796997,,,234.0,-549.0,2805.0,-4.0,0.0,2.0
37.62481164932251,,,171.0,-474.0,3037.0,-5.0,-1.0,5.0
37.64536499977112,,,286.0,-500.0,3022.0,-3.0,-1.0,2.0
37.665812253952026,,,390.0,-509.0,2959.0,-1.0,-1.0,-2.0
37.686238050460815,,,430.0,-499.0,2990.0,-1.0,0.0,-4.0
37.70668339729309,,,366.0,-450.0,3147.0,-2.0,0.0,-3.0
37.727317333221436,,,344.0,-489.0,3118.0,0.0,1.0,-1.0
37.747692584991455,,,243.0,-333.0,3142.0,0.0,1.0,-1.0
37.76831936836243,,,136.0,-211.0,3151.0,0.0,0.0,-5.0
37.78854179382324,,,-3.0,-79.0,3165.0,0.0,0.0,-10.0
37.80919671058655,,,41.0,-94.0,3143.0,-1.0,1.0,-7.0
37.82950568199158,,,154.0,-187.0,3146.0,-1.0,1.0,-1.0
37.85007572174072,,,179.0,-226.0,3121.0,-1.0,1.0,3.0
37.87039613723755,,,-69.0,-131.0,3228.0,-3.0,-1.0,0.0
37.891026735305786,,,-83.0,-153.0,3222.0,-4.0,-2.0,0.0
37.91136622428894,,,38.0,-230.0,3208.0,-2.0,-2.0,0.0
37.93199443817139,,,258.0,-237.0,3197.0,-1.0,-1.0,-2.0
37.9523720741272,,,260.0,-262.0,3169.0,0.0,0.0,-6.0
37.972949504852295,,,251.0,-304.0,3198.0,1.0,0.0,-5.0
37.99340462684631,,,139.0,-256.0,3344.0,0.0,-1.0,0.0
38.01398229598999,,,41.0,-142.0,3244.0,-1.0,-1.0,0.0
38.034356355667114,,,37.0,-155.0,2954.0,-1.0,1.0,-1.0
38.05478501319885,,,-2.0,-124.0,2931.0,-1.0,1.0,-2.0
38.0751678943634,,,-39.0,-41.0,2962.0,-2.0,0.0,0.0
38.09597969055176,,,-24.0,-30.0,3047.0,-3.0,0.0,-2.0
38.11659073829651,,,26.0,-141.0,3105.0,-2.0,1.0,-3.0
38.13313627243042,,,123.0,-231.0,3211.0,-2.0,1.0,-2.0
38.15347743034363,,,258.0,-228.0,3360.0,-1.0,-2.0,-1.0
38.17387580871582,,,221.0,-225.0,3351.0,-1.0,-3.0,0.0
38.19424748420715,,,184.0,-175.0,3352.0,0.0,-2.0,-2.0
38.21499967575073,,,102.0,-81.0,3294.0,0.0,-2.0,-2.0
38.23533868789673,,,36.0,-122.0,3211.0,-1.0,-1.0,-1.0
38.255985736846924,,,48.0,-203.0,3038.0,-3.0,-1.0,-1.0
38.27654409408569,,,68.0,-145.0,2995.0,-3.0,0.0,-2.0
38.296775817871094,,,88.0,-113.0,2972.0,-1.0,1.0,-2.0
38.31730580329895,,,64.0,-104.0,3050.0,-1.0,1.0,0.0
38.337990045547485,,,-42.0,-101.0,3132.0,-1.0,1.0,1.0
38.35825300216675,,,-157.0,-60.0,3191.0,-2.0,0.0,2.0
38.37887907028198,,,-93.0,-133.0,3260.0,-2.0,0.0,2.0
38.3992133140564,,,15.0,-187.0,3277.0,-2.0,0.0,2.0
38.41979718208313,,,109.0,-211.0,3324.0,-2.0,-1.0,4.0
38.44022536277771,,,149.0,-218.0,3335.0,-1.0,-2.0,0.0
38.46079063415527,,,69.0,-168.0,3269.0,-1.0,-2.0,-3.0
38.48121738433838,,,36.0,-127.0,3160.0,0.0,-1.0,-5.0
38.50161623954773,,,94.0,-181.0,3058.0,0.0,-1.0,-5.0
38.52216362953186,,,178.0,-204.0,3016.0,-1.0,-1.0,-3.0
38.542497396469116,,,176.0,-160.0,3001.0,0.0,1.0,3.0
38.563111543655396,,,68.0,-141.0,3066.0,0.0,2.0,3.0
38.58355236053467,,,-20.0,-60.0,3160.0,0.0,1.0,2.0
38.60391354560852,,,-86.0,40.0,3203.0,-2.0,0.0,-1.0
38.624481439590454,,,13.0,-24.0,3240.0,-2.0,0.0,0.0
38.64517903327942,,,97.0,-64.0,3280.0,-2.0,-1.0,0.0
38.66531705856323,,,44.0,-53.0,3272.0,-1.0,-1.0,0.0
38.686095237731934,,,48.0,-102.0,3205.0,-1.0,-1.0,1.0
38.70661377906799,,,80.0,-194.0,3149.0,-1.0,0.0,0.0
38.727001428604126,,,80.0,-150.0,3063.0,0.0,-1.0,0.0
38.747440338134766,,,64.0,-107.0,3095.0,0.0,0.0,1.0
38.767839431762695,,,11.0,-70.0,3154.0,-1.0,-1.0,0.0
38.7882080078125,,,49.0,-89.0,3119.0,-1.0,0.0,-1.0
38.808799028396606,,,98.0,-115.0,3118.0,0.0,0.0,-2.0
38.829469203948975,,,70.0,-126.0,3178.0,1.0,1.0,-1.0
38.849976539611816,,,25.0,-116.0,3194.0,1.0,0.0,0.0
38.870152950286865,,,-2.0,-90.0,3217.0,0.0,0.0,-1.0
38.890894174575806,,,-43.0,16.0,3229.0,-1.0,-1.0,-1.0
38.91119027137756,,,12.0,5.0,3240.0,-1.0,-1.0,-1.0
38.931806325912476,,,41.0,-2.0,3236.0,0.0,-1.0,0.0
38.952061891555786,,,62.0,-107.0,3242.0,0.0,-1.0,2.0
38.97269558906555,,,68.0,-49.0,3314.0,0.0,-2.0,1.0
38.99309182167053,,,1.0,46.0,3313.0,0.0,-4.0,0.0
39.01350975036621,,,6.0,5.0,3199.0,0.0,-3.0,-2.0
39.034019231796265,,,88.0,18.0,3188.0,0.0,-3.0,-2.0
39.0545117855072,,,134.0,0.0,3100.0,0.0,-3.0,1.0
39.07499885559082,,,128.0,-19.0,3029.0,0.0,-2.0,1.0
39.09552216529846,,,96.0,45.0,2991.0,0.0,-2.0,1.0
39.115967988967896,,,84.0,248.0,2997.0,-1.0,-1.0,1.0
39.13665270805359,,,174.0,200.0,2996.0,0.0,-1.0,2.0
39.15717053413391,,,195.0,90.0,3003.0,-1.0,-1.0,2.0
39.17757606506348,,,59.0,-77.0,3224.0,-1.0,-3.0,1.0
39.19801354408264,,,1.0,-71.0,3393.0,-1.0,-4.0,1.0
39.214449882507324,,,-38.0,-37.0,3457.0,-1.0,-5.0,1.0
39.23479676246643,,,-2.0,57.0,3308.0,-1.0,-6.0,1.0
39.255316734313965,,,-4.0,125.0,3210.0,-1.0,-6.0,2.0
39.275827407836914,,,-130.0,404.0,3274.0,-2.0,-6.0,-2.0
39.304606676101685,,,-126.0,360.0,3249.0,-1.0,-5.0,-7.0
39.32491111755371,,,2.0,230.0,3200.0,1.0,-5.0,-9.0
39.34551119804382,,,125.0,143.0,3227.0,3.0,-5.0,-7.0
39.36595797538757,,,113.0,121.0,3232.0,4.0,-6.0,-3.0
39.3864529132843,,,-97.0,154.0,3176.0,6.0,-4.0,-1.0
39.40683698654175,,,-155.0,219.0,3245.0,6.0,-4.0,-3.0
39.42741370201111,,,-198.0,200.0,3162.0,4.0,-5.0,-7.0
39.44788837432861,,,-88.0,66.0,3044.0,5.0,-4.0,-7.0
39.468350410461426,,,101.0,-47.0,3047.0,5.0,-3.0,-5.0
39.48900771141052,,,156.0,-157.0,3125.0,7.0,-1.0,-1.0
39.50920915603638,,,28.0,-114.0,3211.0,7.0,-1.0,-2.0
39.529842138290405,,,61.0,-141.0,3309.0,7.0,-1.0,-4.0
39.550299882888794,,,194.0,-283.0,3318.0,5.0,-1.0,-4.0
39.57059907913208,,,216.0,-308.0,3303.0,4.0,-1.0,-3.0
39.59112334251404,,,215.0,-285.0,3312.0,4.0,-2.0,-2.0
39.611531496047974,,,159.0,-208.0,3240.0,4.0,-2.0,-4.0
39.63179922103882,,,105.0,-110.0,3174.0,4.0,-2.0,-6.0
39.652316093444824,,,74.0,-47.0,3089.0,4.0,-2.0,-8.0
39.67289423942566,,,157.0,-97.0,3116.0,4.0,0.0,-4.0
39.69358444213867,,,101.0,-22.0,3220.0,3.0,-1.0,-2.0
39.71420955657959,,,-37.0,160.0,3136.0,1.0,0.0,1.0
39.73459458351135,,,41.0,54.0,3099.0,2.0,0.0,-1.0
39.755088567733765,,,111.0,-25.0,3083.0,1.0,0.0,-1.0
39.775508880615234,,,130.0,-44.0,3124.0,1.0,1.0,1.0
39.796029806137085,,,137.0,-55.0,3171.0,1.0,1.0,1.0
39.81639909744263,,,94.0,-62.0,3221.0,1.0,1.0,-2.0
39.83700704574585,,,-51.0,11.0,3352.0,1.0,0.0,-5.0
39.857675552368164,,,-13.0,31.0,3373.0,1.0,-1.0,-4.0
39.877915382385254,,,60.0,2.0,3330.0,2.0,-1.0,-4.0
39.89835548400879,,,29.0,-3.0,3184.0,2.0,0.0,-2.0
39.91866636276245,,,15.0,-12.0,3170.0,1.0,0.0,-1.0
39.9391827583313,,,40.0,-5.0,3159.0,0.0,-1.0,0.0
39.95975065231323,,,17.0,15.0,3153.0,0.0,-1.0,0.0
39.98015570640564,,,24.0,29.0,3158.0,0.0,-1.0,-2.0
40.00060224533081,,,113.0,56.0,3155.0,0.0,1.0,-1.0
40.02148652076721,,,103.0,33.0,3138.0,0.0,1.0,0.0
40.04152750968933,,,32.0,83.0,3165.0,0.0,2.0,0.0
40.061988830566406,,,-66.0,100.0,3134.0,-1.0,1.0,-1.0
40.08255887031555,,,-48.0,79.0,3143.0,-1.0,1.0,0.0
40.10298681259155,,,-49.0,163.0,3399.0,-3.0,0.0,1.0
40.12340712547302,,,-11.0,176.0,3491.0,-4.0,-1.0,2.0
40.14426040649414,,,82.0,189.0,3523.0,-4.0,-3.0,0.0
40.16466021537781,,,256.0,471.0,3488.0,0.0,-5.0,-12.0
40.18508505821228,,,305.0,612.0,3524.0,0.0,-3.0,-10.0
40.20563721656799,,,305.0,617.0,3600.0,-1.0,-2.0,-2.0
40.226109743118286,,,-70.0,534.0,3432.0,-3.0,-1.0,9.0
40.246344566345215,,,-239.0,582.0,3404.0,-5.0,-3.0,12.0
40.2668981552124,,,-272.0,544.0,3454.0,-4.0,-6.0,12.0
40.28742003440857,,,-490.0,697.0,3009.0,-1.0,-10.0,7.0
40.30781102180481,,,-411.0,850.0,2569.0,1.0,-9.0,6.0
40.328378200531006,,,-312.0,333.0,1888.0,21.0,-10.0,-22.0
40.34882378578186,,,-408.0,98.0,1556.0,23.0,-9.0,-22.0
40.369247913360596,,,-389.0,164.0,1547.0,25.0,-2.0,-8.0
40.38981485366821,,,-422.0,694.0,2481.0,17.0,6.0,15.0
40.410256147384644,,,-379.0,254.0,2948.0,11.0,3.0,15.0
40.43077301979065,,,-397.0,-298.0,3167.0,11.0,-2.0,4.0
40.450973987579346,,,-131.0,-307.0,3530.0,17.0,-2.0,-14.0
40.47154521942139,,,292.0,-113.0,3845.0,19.0,4.0,-9.0
40.53299307823181,,,551.0,206.0,4412.0,20.0,3.0,7.0
40.561842918395996,,,457.0,238.0,4130.0,21.0,3.0,9.0
40.58224940299988,,,328.0,195.0,3804.0,22.0,3.0,5.0
40.60274815559387,,,135.0,398.0,3445.0,23.0,-1.0,3.0
40.623101234436035,,,170.0,689.0,3260.0,22.0,-4.0,5.0
40.64367747306824,,,182.0,954.0,2988.0,18.0,-12.0,7.0
40.6639609336853,,,242.0,1213.0,2396.0,17.0,-24.0,-7.0
40.684592723846436,,,40.0,1514.0,2246.0,17.0,-25.0,-20.0
40.70512914657593,,,-339.0,1755.0,2355.0,16.0,-22.0,-27.0
40.725584983825684,,,-93.0,1250.0,2497.0,14.0,-22.0,-23.0
40.74191498756409,,,133.0,573.0,2631.0,9.0,-26.0,-28.0
40.762531042099,,,70.0,18.0,2694.0,4.0,-33.0,-41.0
40.78279948234558,,,-126.0,-260.0,2744.0,1.0,-37.0,-47.0
40.80322504043579,,,-181.0,-368.0,2870.0,3.0,-35.0,-37.0
40.823668241500854,,,65.0,-36.0,3339.0,11.0,-25.0,-16.0
40.84430170059204,,,-12.0,218.0,3356.0,13.0,-23.0,-17.0
40.86471152305603,,,-273.0,414.0,3394.0,13.0,-20.0,-17.0
40.88513803482056,,,-365.0,-195.0,3214.0,10.0,-14.0,-29.0
40.90544605255127,,,-184.0,-600.0,3194.0,10.0,-9.0,-33.0
40.926066637039185,,,-363.0,-282.0,3736.0,9.0,-4.0,-12.0
40.94642424583435,,,-456.0,-34.0,3866.0,8.0,-4.0,-3.0
40.96702766418457,,,-305.0,202.0,4014.0,8.0,-2.0,1.0
40.987359046936035,,,1051.0,917.0,4384.0,8.0,-14.0,2.0
41.007978677749634,,,1562.0,1010.0,4137.0,13.0,-21.0,10.0
41.02841019630432,,,1492.0,1536.0,3778.0,18.0,-25.0,15.0
41.04893922805786,,,821.0,2245.0,2686.0,20.0,-23.0,4.0
41.06927418708801,,,356.0,1983.0,2251.0,15.0,-20.0,16.0
41.08991861343384,,,319.0,1672.0,2176.0,12.0,-19.0,31.0
41.11045575141907,,,1776.0,2139.0,2758.0,14.0,-23.0,17.0
41.13100528717041,,,2385.0,2502.0,2781.0,14.0,-27.0,2.0
41.15146017074585,,,2951.0,2621.0,2254.0,16.0,-21.0,5.0
41.171762466430664,,,3725.0,2851.0,1961.0,27.0,-12.0,13.0
41.19237494468689,,,3547.0,3103.0,2102.0,26.0,-12.0,10.0
41.21288990974426,,,2271.0,3436.0,1095.0,11.0,0.0,6.0
41.233405351638794,,,2336.0,4144.0,1815.0,4.0,-4.0,-7.0
41.254040479660034,,,2608.0,4605.0,2567.0,0.0,-8.0,-30.0
41.27447152137756,,,2110.0,4241.0,2569.0,-9.0,-1.0,-49.0
41.29518222808838,,,2492.0,3616.0,2606.0,-18.0,3.0,-39.0
41.31578731536865,,,3089.0,3097.0,2818.0,-25.0,9.0,-35.0
41.335992097854614,,,3816.0,2770.0,3302.0,-30.0,16.0,-60.0
41.35664439201355,,,4050.0,2553.0,3575.0,-32.0,20.0,-93.0
41.376873254776,,,4305.0,2415.0,3975.0,-34.0,20.0,-109.0
41.397296667099,,,3755.0,2434.0,4958.0,-40.0,31.0,-91.0
41.417651653289795,,,3028.0,2680.0,4853.0,-47.0,34.0,-80.0
41.43840265274048,,,2311.0,2588.0,4438.0,-53.0,37.0,-73.0
41.458751916885376,,,791.0,1770.0,3266.0,-56.0,36.0,-87.0
41.479310750961304,,,-179.0,1590.0,2502.0,-62.0,36.0,-116.0
41.49973678588867,,,-2271.0,1174.0,1861.0,-69.0,24.0,-198.0
41.52018976211548,,,-3364.0,7.0,1447.0,-65.0,12.0,-203.0
41.54054141044617,,,-4708.0,-1647.0,781.0,-56.0,9.0,-157.0
41.56136775016785,,,-6312.0,-3516.0,491.0,-43.0,9.0,-79.0
41.581565618515015,,,-5833.0,-2740.0,837.0,-40.0,5.0,-67.0
41.602128982543945,,,-4401.0,-1891.0,1236.0,-41.0,5.0,-55.0
41.62238311767578,,,-3298.0,-1232.0,3570.0,-32.0,14.0,-64.0
41.64297556877136,,,-3990.0,-655.0,4820.0,-26.0,4.0,-52.0
41.663347005844116,,,-4018.0,101.0,5219.0,-27.0,-1.0,-25.0
41.683940172195435,,,-1877.0,1374.0,4753.0,-35.0,6.0,5.0
41.70440363883972,,,-887.0,1917.0,4194.0,-35.0,17.0,10.0
41.72491693496704,,,-1610.0,4597.0,3128.0,-53.0,12.0,4.0
41.74529147148132,,,-2818.0,6067.0,2604.0,-64.0,-5.0,-4.0
41.76575207710266,,,-2979.0,6524.0,1284.0,-70.0,-13.0,-9.0
41.78623080253601,,,-2332.0,6807.0,-3257.0,-79.0,-4.0,1.0
41.80677080154419,,,-3394.0,7969.0,-5202.0,-85.0,-20.0,21.0
41.82318329811096,,,-3989.0,8818.0,-6930.0,-95.0,-30.0,29.0
41.843618631362915,,,-1938.0,9560.0,-9357.0,-114.0,-7.0,-16.0
41.864006996154785,,,-229.0,10125.0,-9006.0,-130.0,-6.0,-62.0
41.88481545448303,,,1801.0,10255.0,-7978.0,-142.0,-10.0,-105.0
41.90520262718201,,,7749.0,7195.0,-2998.0,-178.0,-19.0,-191.0
41.92589449882507,,,8997.0,2477.0,579.0,-185.0,-27.0,-230.0
41.94626474380493,,,6822.0,-3765.0,4269.0,-169.0,-53.0,-216.0
41.966766357421875,,,760.0,-9483.0,8581.0,-114.0,-60.0,-149.0
41.986870765686035,,,-1123.0,-10720.0,9484.0,-105.0,-65.0,-139.0
42.00769114494324,,,-3601.0,-11916.0,10325.0,-65.0,-56.0,-61.0
42.028027296066284,,,-4759.0,-10872.0,10262.0,-24.0,-48.0,-25.0
42.04863786697388,,,-4809.0,-8420.0,9178.0,0.0,-41.0,-11.0
42.068965673446655,,,-2491.0,-4271.0,5991.0,10.0,-28.0,34.0
42.08949136734009,,,-1865.0,-3319.0,3447.0,7.0,-29.0,42.0
42.1101861000061,,,-2506.0,-3373.0,-104.0,17.0,-13.0,48.0
42.13057279586792,,,-5116.0,-3128.0,-6822.0,54.0,10.0,75.0
42.15101456642151,,,-5754.0,-2689.0,-8841.0,59.0,10.0,93.0
42.171517848968506,,,-5512.0,-2703.0,-9384.0,58.0,2.0,96.0
42.19204378128052,,,-4104.0,-3718.0,-5455.0,56.0,13.0,53.0
42.21254897117615,,,-2712.0,-3312.0,-475.0,54.0,7.0,53.0
42.23298263549805,,,-379.0,-3132.0,6264.0,56.0,43.0,87.0
42.253583669662476,,,-1198.0,-1889.0,6417.0,60.0,52.0,122.0
42.274070024490356,,,-840.0,-133.0,5969.0,65.0,57.0,143.0
42.29452967643738,,,943.0,4380.0,1844.0,60.0,41.0,115.0
42.31488513946533,,,1151.0,5924.0,-2046.0,49.0,39.0,92.0
42.33537149429321,,,617.0,7139.0,-5606.0,29.0,37.0,75.0
42.35574960708618,,,-1263.0,8089.0,-9040.0,1.0,26.0,29.0
42.37637805938721,,,-1379.0,7925.0,-9069.0,-9.0,25.0,20.0
42.39694857597351,,,-1318.0,7426.0,-8352.0,-20.0,25.0,17.0
42.41727018356323,,,-1366.0,5125.0,-6664.0,-39.0,18.0,-12.0
42.437742948532104,,,-2003.0,4047.0,-5494.0,-43.0,6.0,-30.0
42.458256483078,,,-2013.0,2807.0,-4155.0,-42.0,-1.0,-42.0
42.47864246368408,,,1049.0,-2431.0,2041.0,-67.0,17.0,-101.0
42.499019145965576,,,375.0,-5724.0,5766.0,-76.0,36.0,-126.0
42.51951289176941,,,-5915.0,-6415.0,7178.0,-13.0,46.0,-45.0
42.53989553451538,,,-5845.0,-4129.0,6799.0,10.0,33.0,-4.0
42.560447692871094,,,-3814.0,-2279.0,5861.0,-8.0,15.0,28.0
42.580995321273804,,,-1091.0,-2775.0,1085.0,-33.0,13.0,41.0
42.601510763168335,,,-1653.0,-3827.0,-803.0,-20.0,12.0,35.0
42.62194061279297,,,-3996.0,-4333.0,-3453.0,6.0,5.0,38.0
42.642598152160645,,,-4438.0,-3781.0,-4025.0,3.0,6.0,57.0
42.66289401054382,,,-4013.0,-3439.0,-3547.0,-6.0,7.0,80.0
42.68338418006897,,,-1771.0,-3492.0,2083.0,-13.0,19.0,128.0
42.70382285118103,,,-1352.0,-3851.0,5407.0,-5.0,45.0,121.0
42.724191188812256,,,-2326.0,-3590.0,7401.0,16.0,44.0,75.0
42.744786977767944,,,-5797.0,-3783.0,5746.0,29.0,47.0,-3.0
42.765464782714844,,,-5710.0,-2971.0,6585.0,34.0,32.0,11.0
42.785903453826904,,,-4929.0,-1720.0,6670.0,34.0,28.0,21.0
42.80634832382202,,,-4487.0,-193.0,2810.0,30.0,42.0,29.0
42.826820850372314,,,-4544.0,-107.0,1177.0,29.0,45.0,43.0
42.847214221954346,,,-4496.0,55.0,594.0,24.0,32.0,45.0
42.86761498451233,,,-3486.0,491.0,1081.0,-9.0,7.0,28.0
42.88792634010315,,,-2746.0,95.0,1650.0,-25.0,7.0,22.0
42.90840458869934,,,-2054.0,-2418.0,2798.0,-25.0,5.0,21.0
42.928853273391724,,,-2042.0,-3256.0,2748.0,-13.0,5.0,38.0
42.949352741241455,,,-2136.0,-3005.0,2550.0,-1.0,5.0,54.0
42.96992087364197,,,-2332.0,-1334.0,2306.0,13.0,3.0,53.0
42.990350008010864,,,-2430.0,-688.0,1997.0,16.0,5.0,41.0
43.010780572891235,,,-2626.0,-174.0,1768.0,14.0,2.0,29.0
43.03126263618469,,,-2964.0,52.0,1541.0,10.0,-8.0,21.0
