time,/ext_usb_camera/image/compressed,robogame/imu_state,robogame/imu_state.linear_acc.x,robogame/imu_state.linear_acc.y,robogame/imu_state.linear_acc.z,robogame/imu_state.gyro.z,robogame/imu_state.gyro.x,robogame/imu_state.gyro.y
0.0,,,180.0,498.0,3578.0,13.0,-23.0,-43.0
0.02033209800720215,,,-362.0,464.0,4082.0,15.0,-21.0,-30.0
0.04063749313354492,,,-1278.0,252.0,3668.0,13.0,-16.0,4.0
0.061009883880615234,,,-1658.0,72.0,3089.0,11.0,-14.0,15.0
0.0814218521118164,,,-1740.0,-620.0,1796.0,2.0,-13.0,20.0
0.10180354118347168,,,-1568.0,-856.0,1195.0,-2.0,-12.0,19.0
0.1224367618560791,,,-1339.0,-854.0,721.0,-5.0,-12.0,18.0
0.14285540580749512,,,-798.0,-358.0,363.0,-5.0,-12.0,10.0
0.1633453369140625,,,-753.0,-130.0,311.0,-6.0,-11.0,7.0
0.18375110626220703,,,-831.0,173.0,223.0,-4.0,-8.0,6.0
0.20436668395996094,,,-613.0,919.0,106.0,6.0,-1.0,8.0
0.22484564781188965,,,-290.0,965.0,86.0,8.0,0.0,12.0
0.24533700942993164,,,-2.0,778.0,70.0,10.0,0.0,19.0
0.26592040061950684,,,261.0,188.0,-113.0,12.0,-1.0,32.0
0.28664422035217285,,,323.0,-127.0,-219.0,13.0,-1.0,32.0
0.30705738067626953,,,340.0,-849.0,-363.0,12.0,-5.0,28.0
0.32761406898498535,,,276.0,-1096.0,-357.0,11.0,-5.0,26.0
0.3480031490325928,,,213.0,-1224.0,-238.0,11.0,-5.0,23.0
0.36844420433044434,,,148.0,-1251.0,120.0,12.0,-4.0,19.0
0.38883543014526367,,,154.0,-1219.0,189.0,11.0,-4.0,19.0
0.4093620777130127,,,148.0,-1186.0,196.0,9.0,-4.0,19.0
0.4297792911529541,,,-64.0,-1079.0,338.0,9.0,-7.0,20.0
0.45027780532836914,,,-305.0,-1026.0,422.0,10.0,-7.0,22.0
0.47069811820983887,,,-593.0,-975.0,456.0,11.0,-6.0,27.0
0.4913349151611328,,,-838.0,-979.0,544.0,9.0,-7.0,32.0
0.511695146560669,,,-955.0,-969.0,613.0,8.0,-9.0,31.0
0.5322310924530029,,,-1255.0,-908.0,675.0,8.0,-9.0,32.0
0.5525503158569336,,,-2084.0,-838.0,888.0,5.0,-11.0,37.0
0.573188066482544,,,-2373.0,-698.0,968.0,3.0,-14.0,38.0
0.5935659408569336,,,-2785.0,-320.0,701.0,7.0,-13.0,38.0
0.6141722202301025,,,-2796.0,-170.0,471.0,10.0,-10.0,41.0
0.6345963478088379,,,-2491.0,-43.0,298.0,10.0,-8.0,42.0
0.6551163196563721,,,-1272.0,198.0,177.0,5.0,-2.0,29.0
0.6757099628448486,,,-445.0,420.0,311.0,1.0,3.0,22.0
0.6962318420410156,,,443.0,753.0,562.0,-6.0,7.0,23.0
0.7166352272033691,,,1426.0,1191.0,1436.0,-22.0,14.0,46.0
0.7370562553405762,,,1591.0,959.0,1793.0,-29.0,16.0,50.0
0.7574942111968994,,,1679.0,689.0,1731.0,-32.0,18.0,41.0
0.7781004905700684,,,1624.0,672.0,321.0,-27.0,25.0,16.0
0.7984874248504639,,,1514.0,1095.0,-594.0,-24.0,25.0,12.0
0.819143533706665,,,1118.0,2124.0,-1989.0,-9.0,18.0,39.0
0.8393824100494385,,,831.0,1855.0,-2441.0,4.0,18.0,60.0
0.8600997924804688,,,422.0,689.0,-2581.0,11.0,22.0,70.0
0.880558967590332,,,-23.0,-1000.0,-2140.0,12.0,25.0,62.0
0.9009346961975098,,,-436.0,-2576.0,-1062.0,7.0,23.0,37.0
0.9213652610778809,,,-1584.0,-2795.0,1174.0,0.0,9.0,-29.0
0.9418859481811523,,,-2188.0,-584.0,2383.0,-2.0,0.0,-46.0
0.9623193740844727,,,-2307.0,787.0,2626.0,-1.0,-2.0,-40.0
0.9828464984893799,,,-2341.0,1913.0,2710.0,2.0,1.0,-26.0
0.9991865158081055,,,-2204.0,1884.0,3227.0,-5.0,10.0,0.0
1.019688606262207,,,-2140.0,1530.0,3494.0,-7.0,12.0,6.0
1.040013313293457,,,-1949.0,1407.0,3644.0,-4.0,16.0,10.0
1.0607366561889648,,,-583.0,1987.0,3038.0,7.0,19.0,8.0
1.0810832977294922,,,216.0,2349.0,2446.0,7.0,19.0,8.0
1.101625680923462,,,1489.0,2574.0,1698.0,0.0,18.0,15.0
1.1220762729644775,,,1875.0,2447.0,1650.0,-4.0,16.0,19.0
1.1426286697387695,,,2026.0,2295.0,1697.0,-5.0,16.0,21.0
1.1630940437316895,,,2046.0,2191.0,1730.0,-2.0,10.0,17.0
1.183471918106079,,,1761.0,2078.0,1270.0,1.0,12.0,17.0
1.2040479183197021,,,1665.0,1849.0,917.0,2.0,15.0,14.0
1.2244412899017334,,,2667.0,1967.0,1415.0,2.0,1.0,5.0
1.2448368072509766,,,3109.0,2003.0,1594.0,1.0,-9.0,-1.0
1.265427827835083,,,3139.0,1750.0,1508.0,-2.0,-16.0,-11.0
1.285897970199585,,,2071.0,1192.0,795.0,-5.0,-21.0,-28.0
1.3065433502197266,,,1463.0,1104.0,602.0,-4.0,-21.0,-31.0
1.3268535137176514,,,487.0,705.0,723.0,-6.0,-21.0,-33.0
1.34721040725708,,,64.0,436.0,836.0,-8.0,-22.0,-30.0
1.3678135871887207,,,-367.0,236.0,953.0,-9.0,-22.0,-27.0
1.3881900310516357,,,-1189.0,130.0,1291.0,-9.0,-17.0,-17.0
1.4090003967285156,,,-1509.0,131.0,1547.0,-6.0,-14.0,-9.0
1.4291675090789795,,,-1695.0,88.0,1705.0,-4.0,-13.0,1.0
1.4499225616455078,,,-1624.0,27.0,1621.0,0.0,-10.0,13.0
1.470278263092041,,,-1507.0,134.0,1448.0,5.0,-9.0,18.0
1.4908037185668945,,,-1292.0,276.0,1110.0,11.0,-5.0,22.0
1.5111181735992432,,,-142.0,1097.0,-285.0,19.0,3.0,22.0
1.531785249710083,,,659.0,1613.0,-1127.0,21.0,1.0,25.0
1.5520055294036865,,,1269.0,1858.0,-2003.0,21.0,1.0,24.0
1.5726916790008545,,,2062.0,1718.0,-3044.0,11.0,5.0,3.0
1.5930225849151611,,,2081.0,1776.0,-2830.0,4.0,10.0,-14.0
1.6136338710784912,,,1605.0,2482.0,-865.0,-6.0,19.0,-28.0
1.6380715370178223,,,1446.0,3291.0,603.0,-4.0,19.0,-21.0
1.6587486267089844,,,1670.0,4004.0,1979.0,3.0,18.0,-13.0
1.6790294647216797,,,2402.0,4023.0,3601.0,6.0,5.0,16.0
1.699669599533081,,,2750.0,3710.0,4860.0,4.0,-3.0,22.0
1.7201197147369385,,,4700.0,2042.0,9100.0,-15.0,-48.0,-4.0
1.7364487648010254,,,4195.0,1084.0,10708.0,-22.0,-56.0,15.0
1.7569587230682373,,,2391.0,603.0,11614.0,-26.0,-50.0,34.0
1.777414083480835,,,221.0,1459.0,13146.0,-24.0,-55.0,35.0
1.7978160381317139,,,-273.0,1893.0,12571.0,-12.0,-59.0,68.0
1.8184888362884521,,,-376.0,1591.0,10888.0,0.0,-56.0,104.0
1.838860273361206,,,-213.0,-781.0,6535.0,8.0,-50.0,118.0
1.8592019081115723,,,-696.0,-2180.0,4838.0,8.0,-52.0,104.0
1.8798303604125977,,,-1634.0,-3593.0,3878.0,7.0,-61.0,67.0
1.9004738330841064,,,-4464.0,-4968.0,1648.0,10.0,-69.0,-14.0
1.9205796718597412,,,-6298.0,-4340.0,-25.0,18.0,-54.0,-37.0
1.9413411617279053,,,-8136.0,-2953.0,-1271.0,23.0,-36.0,-60.0
1.9616971015930176,,,-9635.0,-428.0,-2543.0,25.0,-2.0,-36.0
1.982130527496338,,,-8485.0,31.0,-3607.0,30.0,17.0,12.0
2.002624988555908,,,-4147.0,959.0,-6843.0,28.0,51.0,48.0
2.0229640007019043,,,-1973.0,1460.0,-8075.0,24.0,61.0,49.0
2.0434765815734863,,,-224.0,1931.0,-8592.0,18.0,65.0,53.0
2.064037561416626,,,2660.0,2947.0,-6899.0,13.0,50.0,28.0
2.0846505165100098,,,4097.0,2806.0,-5425.0,16.0,37.0,23.0
2.1048262119293213,,,5087.0,2247.0,-3816.0,20.0,26.0,28.0
2.1254732608795166,,,5252.0,1635.0,-1927.0,22.0,12.0,26.0
2.145965576171875,,,4761.0,1151.0,140.0,26.0,-5.0,2.0
2.1664509773254395,,,4151.0,717.0,2540.0,35.0,-30.0,-17.0
2.187093734741211,,,3013.0,-1966.0,8879.0,68.0,-42.0,-28.0
2.2073326110839844,,,1788.0,-2952.0,11385.0,72.0,-36.0,-26.0
2.227923631668091,,,-309.0,-3294.0,13837.0,49.0,-32.0,15.0
2.248490571975708,,,-515.0,-3888.0,13369.0,39.0,-21.0,44.0
2.268967866897583,,,-186.0,-4860.0,11945.0,35.0,-15.0,55.0
2.289280652999878,,,-751.0,-6411.0,7160.0,10.0,2.0,61.0
2.3100178241729736,,,-1571.0,-5887.0,5747.0,-2.0,2.0,56.0
2.330296277999878,,,-1575.0,-4506.0,4594.0,-2.0,-1.0,60.0
2.350825786590576,,,1761.0,-4220.0,1465.0,34.0,-1.0,95.0
2.3712215423583984,,,3641.0,-5409.0,-156.0,32.0,4.0,32.0
2.391570568084717,,,3968.0,-5139.0,-1701.0,-13.0,-8.0,-129.0
2.412095785140991,,,-2319.0,-4416.0,-1925.0,-47.0,-36.0,-238.0
2.4324495792388916,,,-4729.0,-3261.0,-743.0,-41.0,-23.0,-156.0
2.4530327320098877,,,-4686.0,-1177.0,-293.0,-37.0,-12.0,-101.0
2.473410129547119,,,-802.0,2135.0,-2803.0,-26.0,-5.0,-57.0
2.494014263153076,,,1933.0,2163.0,-4881.0,-31.0,-11.0,-50.0
2.514359712600708,,,3681.0,-970.0,-6974.0,-85.0,-25.0,-103.0
2.534980297088623,,,1523.0,-1399.0,-5942.0,-93.0,-22.0,-124.0
2.5553479194641113,,,-1227.0,-250.0,-3980.0,-81.0,-18.0,-123.0
2.5758025646209717,,,-2601.0,2256.0,-1546.0,-45.0,-22.0,-33.0
2.5962538719177246,,,-1381.0,1239.0,-1068.0,-41.0,-22.0,-18.0
2.616703748703003,,,-208.0,-553.0,-173.0,-49.0,-21.0,-41.0
2.6372833251953125,,,-130.0,-2324.0,3561.0,-60.0,-13.0,-102.0
2.6578407287597656,,,-735.0,-2291.0,5895.0,-50.0,-12.0,-92.0
2.6782917976379395,,,-910.0,-2019.0,7308.0,-42.0,-16.0,-72.0
2.6988117694854736,,,476.0,-1314.0,7227.0,-32.0,-31.0,-60.0
2.7191927433013916,,,679.0,-2113.0,7107.0,-26.0,-37.0,-58.0
2.739804267883301,,,-1376.0,-2899.0,7881.0,-19.0,-45.0,-39.0
2.7602548599243164,,,-2697.0,-1983.0,8057.0,-16.0,-62.0,-38.0
2.780735969543457,,,-4552.0,-1649.0,7571.0,-10.0,-74.0,-37.0
2.7969067096710205,,,-8476.0,-4106.0,4238.0,-19.0,-89.0,-111.0
2.81744647026062,,,-7305.0,-2858.0,2291.0,-24.0,-94.0,-113.0
2.8377983570098877,,,-5429.0,-400.0,1257.0,-13.0,-83.0,-121.0
2.8583459854125977,,,-1385.0,2428.0,-784.0,14.0,-93.0,-107.0
2.878781318664551,,,-13.0,2089.0,-2765.0,9.0,-93.0,-51.0
2.8997833728790283,,,406.0,1415.0,-4746.0,-2.0,-75.0,-1.0
2.920279026031494,,,-444.0,129.0,-6385.0,-1.0,-38.0,36.0
2.940683364868164,,,-867.0,-552.0,-6632.0,-3.0,-29.0,29.0
2.961091995239258,,,-679.0,-1217.0,-6828.0,-7.0,-28.0,9.0
2.9816012382507324,,,988.0,-2886.0,-6893.0,-4.0,-31.0,-38.0
3.001965045928955,,,1218.0,-4213.0,-6642.0,-12.0,-38.0,-65.0
3.022559881210327,,,-2550.0,-5988.0,-4739.0,-50.0,-63.0,-72.0
3.0430245399475098,,,-5429.0,-6267.0,-2373.0,-67.0,-68.0,-62.0
3.063471794128418,,,-6959.0,-5897.0,602.0,-77.0,-75.0,-66.0
3.083889961242676,,,-7306.0,-5131.0,3049.0,-76.0,-81.0,-73.0
3.1043615341186523,,,-7831.0,-4514.0,4281.0,-72.0,-66.0,-53.0
3.125044107437134,,,-8474.0,-3817.0,4880.0,-73.0,-40.0,-26.0
3.145440101623535,,,-6341.0,-2142.0,4442.0,-79.0,-50.0,-66.0
3.165818929672241,,,-5167.0,-1452.0,3159.0,-78.0,-55.0,-78.0
3.186507225036621,,,-5204.0,-1236.0,2041.0,-77.0,-42.0,-59.0
3.2069339752197266,,,-6524.0,-1017.0,1174.0,-85.0,-31.0,-7.0
3.227447271347046,,,-5942.0,-338.0,641.0,-85.0,-22.0,2.0
3.247878074645996,,,-3732.0,342.0,-1298.0,-82.0,-9.0,-45.0
3.268386125564575,,,-3048.0,380.0,-2324.0,-77.0,-4.0,-69.0
3.2886762619018555,,,-3137.0,392.0,-2553.0,-71.0,1.0,-83.0
3.309178590774536,,,-5032.0,858.0,-214.0,-64.0,12.0,-59.0
3.3296775817871094,,,-5256.0,945.0,604.0,-59.0,19.0,-42.0
3.350247859954834,,,-4585.0,685.0,660.0,-56.0,26.0,-51.0
3.3706512451171875,,,-2605.0,356.0,914.0,-41.0,29.0,-76.0
3.390916347503662,,,-1742.0,561.0,1732.0,-26.0,30.0,-73.0
3.4114625453948975,,,-1176.0,783.0,3221.0,-3.0,30.0,-61.0
3.4319729804992676,,,-1800.0,673.0,6267.0,42.0,30.0,-23.0
3.4524261951446533,,,-2323.0,-401.0,6435.0,54.0,30.0,-29.0
3.473113775253296,,,-2699.0,-1468.0,6194.0,56.0,30.0,-51.0
3.493894100189209,,,-563.0,217.0,7295.0,71.0,50.0,-71.0
3.5141923427581787,,,1302.0,1174.0,8614.0,92.0,55.0,-50.0
3.534493923187256,,,2958.0,196.0,7095.0,100.0,55.0,12.0
3.555163621902466,,,4316.0,-941.0,4997.0,95.0,52.0,25.0
3.5754716396331787,,,5167.0,-2426.0,3049.0,83.0,47.0,53.0
3.59601092338562,,,1857.0,-4307.0,642.0,65.0,62.0,181.0
3.6166393756866455,,,-828.0,-5503.0,-274.0,58.0,57.0,175.0
3.636992931365967,,,-2528.0,-6927.0,-1263.0,37.0,49.0,132.0
3.6574273109436035,,,-1382.0,-7020.0,-2995.0,-6.0,48.0,69.0
3.677954912185669,,,-77.0,-6433.0,-3617.0,-3.0,41.0,60.0
3.6982228755950928,,,553.0,-6055.0,-4341.0,7.0,34.0,51.0
3.718935251235962,,,-1370.0,-6756.0,-5845.0,4.0,18.0,13.0
3.739476203918457,,,-2866.0,-7023.0,-5857.0,-9.0,12.0,-3.0
3.7597367763519287,,,-3284.0,-5998.0,-3811.0,-34.0,5.0,-23.0
3.7803258895874023,,,-2436.0,-4496.0,-2470.0,-35.0,10.0,-18.0
3.8007137775421143,,,-2064.0,-2627.0,-796.0,-35.0,6.0,-27.0
3.8212313652038574,,,-2550.0,-668.0,1744.0,-53.0,-8.0,-55.0
3.8417606353759766,,,-2533.0,1646.0,4701.0,-66.0,-15.0,-61.0
3.862159490585327,,,-1404.0,3624.0,6616.0,-48.0,-3.0,-31.0
3.8786211013793945,,,461.0,4551.0,5880.0,-35.0,19.0,12.0
3.899026393890381,,,861.0,4593.0,4569.0,-34.0,25.0,21.0
3.9194583892822266,,,843.0,4429.0,3184.0,-28.0,31.0,38.0
3.9399325847625732,,,8.0,3489.0,1011.0,-19.0,37.0,59.0
3.960434675216675,,,302.0,3534.0,62.0,-13.0,39.0,54.0
3.981086492538452,,,1029.0,4012.0,-962.0,-1.0,43.0,52.0
4.001431226730347,,,2881.0,4756.0,-3231.0,14.0,51.0,64.0
4.0220606327056885,,,3715.0,4724.0,-3485.0,5.0,49.0,68.0
4.042336940765381,,,3692.0,4241.0,543.0,4.0,55.0,146.0
4.062931060791016,,,4110.0,3141.0,4341.0,32.0,55.0,183.0
4.083402156829834,,,4675.0,1690.0,6030.0,52.0,46.0,167.0
4.103900909423828,,,3633.0,-874.0,5327.0,40.0,44.0,124.0
4.124525785446167,,,3022.0,-1277.0,4999.0,31.0,42.0,97.0
4.1488916873931885,,,2912.0,-121.0,3671.0,33.0,42.0,47.0
4.16925573348999,,,3052.0,-145.0,3521.0,32.0,42.0,45.0
4.189824342727661,,,3018.0,-439.0,3667.0,27.0,45.0,60.0
4.210303783416748,,,3503.0,-274.0,3216.0,18.0,52.0,88.0
4.230620384216309,,,4149.0,36.0,2595.0,19.0,47.0,94.0
4.251148462295532,,,4787.0,78.0,1837.0,22.0,39.0,93.0
4.271611928939819,,,5605.0,-1305.0,516.0,17.0,23.0,57.0
4.292575359344482,,,5671.0,-1849.0,213.0,6.0,18.0,38.0
4.312704086303711,,,5472.0,-1455.0,22.0,-4.0,15.0,28.0
4.333271265029907,,,4577.0,650.0,-198.0,-5.0,10.0,32.0
4.353801965713501,,,4410.0,1082.0,-337.0,-4.0,5.0,38.0
4.374261856079102,,,4352.0,355.0,-89.0,-9.0,2.0,26.0
4.39461088180542,,,4346.0,271.0,369.0,-14.0,-2.0,11.0
4.415019989013672,,,3996.0,678.0,1156.0,-17.0,-5.0,5.0
4.435574054718018,,,3210.0,1834.0,2708.0,-12.0,-9.0,14.0
4.455930471420288,,,3125.0,2036.0,2865.0,-6.0,-9.0,23.0
4.476567506790161,,,3060.0,1956.0,2644.0,-3.0,-12.0,28.0
4.497184991836548,,,2285.0,1653.0,1330.0,-2.0,-19.0,28.0
4.517622232437134,,,1695.0,1282.0,933.0,-4.0,-23.0,22.0
4.538028955459595,,,984.0,940.0,989.0,-5.0,-25.0,20.0
4.558504343032837,,,-596.0,870.0,1287.0,1.0,-28.0,22.0
4.579047679901123,,,-1266.0,1016.0,1002.0,6.0,-26.0,23.0
4.599263668060303,,,-1665.0,1137.0,399.0,10.0,-25.0,27.0
4.615923166275024,,,-2039.0,870.0,-1081.0,13.0,-20.0,29.0
4.63618016242981,,,-2003.0,432.0,-1492.0,13.0,-13.0,26.0
4.656679153442383,,,-1995.0,-455.0,-1123.0,9.0,6.0,16.0
4.677053689956665,,,-1880.0,-591.0,-637.0,7.0,13.0,12.0
4.697691440582275,,,-1687.0,-625.0,-127.0,6.0,18.0,9.0
4.718261957168579,,,-1079.0,-569.0,379.0,7.0,19.0,2.0
4.738722324371338,,,-763.0,-387.0,406.0,9.0,20.0,-6.0
4.7592668533325195,,,-460.0,-168.0,532.0,9.0,20.0,-16.0
4.779681921005249,,,-118.0,266.0,740.0,4.0,21.0,-24.0
4.8002095222473145,,,-153.0,110.0,954.0,1.0,22.0,-24.0
4.82065224647522,,,-271.0,-101.0,1162.0,-3.0,24.0,-27.0
4.840955972671509,,,-247.0,703.0,1227.0,-10.0,22.0,-46.0
4.8614091873168945,,,-156.0,1297.0,1409.0,-9.0,24.0,-51.0
4.8822386264801025,,,-15.0,1627.0,1899.0,-8.0,25.0,-44.0
4.902508974075317,,,145.0,1791.0,2792.0,-7.0,24.0,-22.0
4.923064708709717,,,336.0,1792.0,2657.0,-6.0,23.0,-23.0
4.94331431388855,,,721.0,1293.0,2103.0,-4.0,20.0,-31.0
4.963816165924072,,,844.0,1077.0,1931.0,-4.0,20.0,-32.0
4.9842963218688965,,,925.0,1076.0,1824.0,-2.0,19.0,-31.0
5.004827976226807,,,878.0,1234.0,1718.0,1.0,21.0,-24.0
5.025524139404297,,,1307.0,1248.0,1695.0,6.0,18.0,-4.0
5.046046495437622,,,1699.0,1095.0,1699.0,4.0,13.0,4.0
5.066452503204346,,,2248.0,589.0,1672.0,0.0,1.0,0.0
5.086776971817017,,,2001.0,471.0,1677.0,-1.0,-4.0,-8.0
5.107511043548584,,,1444.0,664.0,1597.0,1.0,-6.0,-15.0
5.127787828445435,,,765.0,955.0,1425.0,3.0,-8.0,-12.0
5.148447751998901,,,585.0,827.0,1293.0,0.0,-9.0,-5.0
5.1688830852508545,,,231.0,510.0,1104.0,-5.0,-8.0,3.0
5.189388036727905,,,116.0,479.0,1089.0,-5.0,-8.0,2.0
5.209731578826904,,,98.0,460.0,1145.0,-4.0,-8.0,-1.0
5.230304002761841,,,228.0,483.0,1175.0,-3.0,-9.0,-5.0
5.250669479370117,,,289.0,517.0,1231.0,-2.0,-10.0,-4.0
5.271346807479858,,,285.0,580.0,1192.0,0.0,-9.0,-2.0
5.29170823097229,,,152.0,671.0,850.0,3.0,-5.0,6.0
5.3122758865356445,,,173.0,551.0,789.0,3.0,-5.0,11.0
5.332622289657593,,,267.0,337.0,823.0,3.0,-6.0,13.0
5.353244066238403,,,522.0,-99.0,1037.0,2.0,-7.0,13.0
5.373387575149536,,,629.0,-336.0,1176.0,3.0,-8.0,12.0
5.394128084182739,,,706.0,-594.0,1305.0,3.0,-9.0,11.0
5.4143970012664795,,,718.0,-982.0,1437.0,2.0,-12.0,7.0
5.435071229934692,,,560.0,-1030.0,1401.0,2.0,-12.0,5.0
5.4553351402282715,,,318.0,-1005.0,1247.0,2.0,-11.0,2.0
5.4759790897369385,,,345.0,-982.0,1122.0,1.0,-11.0,0.0
5.496342897415161,,,382.0,-963.0,1008.0,0.0,-12.0,0.0
5.517014503479004,,,353.0,-740.0,863.0,-3.0,-12.0,1.0
5.537389039993286,,,374.0,-487.0,773.0,-3.0,-12.0,2.0
5.557770729064941,,,418.0,-328.0,660.0,-2.0,-12.0,4.0
5.578176975250244,,,425.0,-531.0,415.0,-4.0,-14.0,6.0
5.598927021026611,,,263.0,-684.0,279.0,-6.0,-15.0,2.0
5.619343519210815,,,37.0,-814.0,270.0,-8.0,-16.0,-6.0
5.639847755432129,,,-529.0,-1062.0,647.0,-12.0,-17.0,-12.0
5.66030478477478,,,-822.0,-1104.0,815.0,-13.0,-18.0,-9.0
5.676682472229004,,,-1375.0,-751.0,922.0,-11.0,-18.0,-10.0
5.697119951248169,,,-1770.0,-500.0,823.0,-9.0,-20.0,-13.0
5.717775106430054,,,-2373.0,-208.0,477.0,-7.0,-19.0,-7.0
5.738173007965088,,,-2943.0,22.0,-413.0,-4.0,-18.0,16.0
5.758538484573364,,,-2809.0,-133.0,-753.0,0.0,-20.0,28.0
5.7790749073028564,,,-2641.0,-384.0,-910.0,6.0,-21.0,32.0
5.799523591995239,,,-2361.0,-817.0,-922.0,13.0,-21.0,15.0
5.8198535442352295,,,-2007.0,-729.0,-909.0,9.0,-22.0,3.0
5.8405232429504395,,,-1773.0,-616.0,-532.0,6.0,-21.0,-7.0
5.86076545715332,,,-3223.0,-350.0,1621.0,12.0,-12.0,4.0
5.881309270858765,,,-3973.0,452.0,2563.0,18.0,-5.0,12.0
5.901858329772949,,,-3930.0,1411.0,3194.0,16.0,5.0,11.0
5.922234535217285,,,-2838.0,3967.0,4187.0,19.0,28.0,42.0
5.942688465118408,,,-1820.0,4714.0,4516.0,38.0,40.0,71.0
5.963214635848999,,,732.0,2652.0,5701.0,65.0,46.0,84.0
5.983612775802612,,,1978.0,941.0,6373.0,60.0,39.0,68.0
6.003965139389038,,,2633.0,132.0,6559.0,42.0,35.0,51.0
6.024644374847412,,,1997.0,595.0,5554.0,23.0,40.0,51.0
6.045002222061157,,,1853.0,295.0,4779.0,20.0,40.0,58.0
6.065434455871582,,,2196.0,-550.0,3774.0,17.0,37.0,60.0
6.085915565490723,,,3457.0,-1944.0,596.0,3.0,34.0,60.0
6.106312990188599,,,4371.0,-2236.0,-989.0,-3.0,27.0,60.0
6.126915216445923,,,5408.0,-2247.0,-2527.0,-7.0,18.0,58.0
6.147299289703369,,,6642.0,-2334.0,-5902.0,-25.0,17.0,38.0
6.167889356613159,,,6638.0,-2472.0,-7141.0,-37.0,23.0,23.0
6.188288450241089,,,5188.0,-2213.0,-7159.0,-52.0,32.0,-1.0
6.2086687088012695,,,3696.0,-1864.0,-6177.0,-54.0,34.0,-9.0
6.229059219360352,,,2087.0,-1358.0,-4771.0,-50.0,36.0,-18.0
6.249561309814453,,,-657.0,-218.0,-1471.0,-43.0,29.0,-42.0
6.270095586776733,,,-1633.0,292.0,226.0,-42.0,22.0,-49.0
6.290473937988281,,,-2487.0,656.0,1699.0,-42.0,17.0,-50.0
6.311171770095825,,,-4568.0,1564.0,3501.0,-36.0,21.0,-47.0
6.331541538238525,,,-5535.0,2154.0,3893.0,-32.0,24.0,-36.0
6.352165937423706,,,-5954.0,2586.0,3986.0,-30.0,26.0,-13.0
6.3726160526275635,,,-5852.0,2470.0,3883.0,-26.0,30.0,46.0
6.393101453781128,,,-5714.0,2009.0,4135.0,-14.0,35.0,70.0
6.413468360900879,,,-5250.0,1315.0,4381.0,2.0,36.0,83.0
6.434497117996216,,,-3217.0,117.0,3501.0,12.0,30.0,54.0
6.45479941368103,,,-2179.0,274.0,2647.0,3.0,22.0,29.0
6.475172519683838,,,-1165.0,1762.0,917.0,-4.0,-2.0,16.0
6.495709180831909,,,-738.0,2458.0,-50.0,3.0,-7.0,23.0
6.516358852386475,,,-10.0,3029.0,-797.0,16.0,-4.0,27.0
6.536740064620972,,,2482.0,3259.0,-269.0,24.0,4.0,21.0
6.557292222976685,,,3067.0,3234.0,1380.0,13.0,7.0,21.0
6.577543020248413,,,2850.0,3525.0,3729.0,6.0,9.0,19.0
6.598043203353882,,,2562.0,4046.0,8660.0,11.0,14.0,-12.0
6.618627071380615,,,3052.0,4480.0,9073.0,16.0,14.0,-43.0
6.639197826385498,,,3414.0,5020.0,7854.0,20.0,13.0,-78.0
6.659799814224243,,,1877.0,5235.0,4789.0,18.0,0.0,-108.0
6.680355548858643,,,637.0,5156.0,3224.0,18.0,-9.0,-83.0
6.700665712356567,,,-767.0,4994.0,-228.0,36.0,-23.0,4.0
6.7212066650390625,,,-610.0,4595.0,-1861.0,47.0,-27.0,34.0
6.741537809371948,,,-41.0,4111.0,-3408.0,52.0,-31.0,45.0
6.7622034549713135,,,1435.0,2891.0,-5734.0,45.0,-48.0,39.0
6.782561302185059,,,2032.0,2142.0,-6008.0,37.0,-58.0,35.0
6.803033351898193,,,2273.0,931.0,-4195.0,26.0,-69.0,28.0
6.823488235473633,,,2190.0,426.0,-2158.0,25.0,-63.0,21.0
6.844024658203125,,,2199.0,-83.0,261.0,28.0,-55.0,11.0
6.86444354057312,,,2174.0,-1013.0,4033.0,31.0,-41.0,-12.0
6.88501238822937,,,2066.0,-770.0,4611.0,34.0,-43.0,-39.0
6.905266761779785,,,1705.0,-363.0,4176.0,28.0,-47.0,-66.0
6.9259033203125,,,1125.0,-66.0,3438.0,10.0,-52.0,-92.0
6.946430921554565,,,242.0,204.0,3128.0,-10.0,-53.0,-104.0
6.966801881790161,,,-947.0,646.0,3660.0,-19.0,-45.0,-100.0
6.987312078475952,,,-2330.0,2369.0,5378.0,4.0,-29.0,-47.0
7.007842540740967,,,-1814.0,2973.0,4757.0,13.0,-30.0,-16.0
7.028315544128418,,,-903.0,2955.0,3594.0,14.0,-30.0,-6.0
7.048729419708252,,,629.0,2397.0,2530.0,8.0,-25.0,-35.0
7.069275856018066,,,850.0,2624.0,2719.0,7.0,-24.0,-39.0
7.089779853820801,,,820.0,2183.0,2891.0,14.0,-25.0,-5.0
7.110350847244263,,,676.0,1554.0,2367.0,14.0,-24.0,12.0
7.130793571472168,,,569.0,1116.0,1679.0,14.0,-21.0,17.0
7.151155233383179,,,225.0,385.0,1061.0,18.0,-20.0,4.0
7.171621084213257,,,-51.0,-96.0,1061.0,19.0,-21.0,-1.0
7.192054986953735,,,-152.0,-552.0,1109.0,17.0,-20.0,-4.0
7.2124974727630615,,,85.0,-600.0,1125.0,21.0,-18.0,-4.0
7.232986927032471,,,224.0,-366.0,1051.0,26.0,-17.0,0.0
7.253535509109497,,,234.0,-510.0,945.0,26.0,-17.0,6.0
7.273993253707886,,,-291.0,-1635.0,887.0,25.0,-16.0,12.0
7.294508934020996,,,-513.0,-1926.0,848.0,24.0,-14.0,4.0
7.314808368682861,,,-575.0,-1783.0,840.0,22.0,-9.0,-17.0
7.335288763046265,,,-710.0,-1696.0,911.0,23.0,-7.0,-15.0
7.355784177780151,,,-777.0,-1588.0,953.0,22.0,-4.0,-11.0
7.376124620437622,,,-497.0,-1200.0,855.0,17.0,1.0,-23.0
7.39656400680542,,,-436.0,-1130.0,880.0,14.0,3.0,-30.0
7.417316675186157,,,-538.0,-1063.0,1019.0,11.0,4.0,-30.0
7.43769383430481,,,-539.0,-534.0,1359.0,6.0,5.0,-22.0
7.458085060119629,,,-352.0,-340.0,1401.0,4.0,7.0,-19.0
7.474567174911499,,,-197.0,-221.0,1325.0,4.0,9.0,-15.0
7.494974851608276,,,-159.0,443.0,1346.0,6.0,16.0,-7.0
7.515485048294067,,,-20.0,998.0,1307.0,10.0,21.0,-4.0
7.536015748977661,,,206.0,1501.0,1228.0,10.0,26.0,-4.0
7.556555271148682,,,-87.0,1948.0,1955.0,6.0,36.0,-1.0
7.576725244522095,,,-318.0,2073.0,2463.0,11.0,41.0,5.0
7.5973522663116455,,,-531.0,2809.0,2028.0,27.0,51.0,31.0
7.617599010467529,,,-512.0,3045.0,1115.0,31.0,57.0,44.0
7.638258934020996,,,-466.0,2993.0,6.0,29.0,63.0,50.0
7.658570766448975,,,-717.0,2380.0,-1408.0,15.0,81.0,62.0
7.6791832447052,,,-698.0,2035.0,-1410.0,13.0,88.0,65.0
7.699695110321045,,,-267.0,1923.0,-1166.0,13.0,94.0,56.0
7.720080852508545,,,664.0,2931.0,-73.0,5.0,94.0,28.0
7.740632057189941,,,421.0,3681.0,880.0,2.0,92.0,42.0
7.761054754257202,,,173.0,4189.0,1796.0,2.0,92.0,62.0
7.781667709350586,,,1066.0,3965.0,4212.0,9.0,81.0,56.0
7.802058458328247,,,1486.0,3752.0,5562.0,14.0,74.0,40.0
7.822400331497192,,,2648.0,3942.0,7559.0,12.0,67.0,10.0
7.843039035797119,,,3177.0,4079.0,7907.0,0.0,67.0,16.0
7.8634233474731445,,,3113.0,4375.0,7870.0,-10.0,69.0,28.0
7.884047508239746,,,1675.0,4511.0,6652.0,-22.0,70.0,70.0
7.904377222061157,,,1095.0,3887.0,5483.0,-23.0,65.0,96.0
7.924962759017944,,,1064.0,3216.0,4039.0,-27.0,55.0,119.0
7.945383310317993,,,-3.0,1380.0,1043.0,-32.0,55.0,142.0
7.965956449508667,,,-1119.0,205.0,704.0,-27.0,51.0,140.0
7.986357927322388,,,-2139.0,-542.0,898.0,-25.0,35.0,141.0
8.006892442703247,,,-3657.0,-1059.0,1942.0,-24.0,9.0,158.0
8.027295589447021,,,-4418.0,-1250.0,3269.0,-22.0,-7.0,161.0
8.047891616821289,,,-5442.0,-1501.0,4632.0,-26.0,-24.0,168.0
8.068308115005493,,,-5131.0,-1645.0,7174.0,-45.0,-58.0,209.0
8.088903188705444,,,-3197.0,-2197.0,8753.0,-54.0,-79.0,215.0
8.10932445526123,,,102.0,-2603.0,11672.0,-57.0,-121.0,204.0
8.129812002182007,,,690.0,-2708.0,11935.0,-55.0,-133.0,155.0
8.150277853012085,,,656.0,-3077.0,11379.0,-56.0,-130.0,90.0
8.170799732208252,,,-1497.0,-5599.0,9196.0,-25.0,-131.0,-11.0
8.191556692123413,,,-3679.0,-6804.0,5683.0,-3.0,-122.0,-22.0
8.212252378463745,,,-6140.0,-7083.0,2363.0,14.0,-97.0,0.0
8.23263168334961,,,-8508.0,-8037.0,-3875.0,55.0,-36.0,80.0
8.253110647201538,,,-8154.0,-8209.0,-6574.0,74.0,-3.0,103.0
8.273429155349731,,,-7126.0,-7510.0,-8241.0,84.0,18.0,101.0
8.294025182723999,,,-5575.0,-4423.0,-8451.0,92.0,13.0,80.0
8.314373254776001,,,-5164.0,-2650.0,-7704.0,103.0,9.0,57.0
8.334798812866211,,,-3516.0,-645.0,-4860.0,124.0,52.0,20.0
8.355467081069946,,,-2143.0,-755.0,-2602.0,120.0,84.0,18.0
8.375683307647705,,,-1652.0,-1142.0,-1157.0,97.0,107.0,22.0
8.396031141281128,,,-2849.0,-1759.0,-406.0,79.0,119.0,63.0
8.416518211364746,,,-2353.0,-1678.0,-188.0,89.0,118.0,100.0
8.43698239326477,,,-1201.0,-995.0,420.0,97.0,108.0,113.0
8.457370042800903,,,-128.0,1740.0,606.0,97.0,73.0,85.0
8.47788119316101,,,-148.0,2949.0,-63.0,95.0,69.0,78.0
8.49826955795288,,,-196.0,3685.0,-903.0,92.0,70.0,90.0
8.518851041793823,,,-102.0,4593.0,-2279.0,68.0,65.0,95.0
8.539370059967041,,,-308.0,5114.0,-2598.0,48.0,55.0,81.0
8.555715799331665,,,-712.0,5091.0,-2898.0,27.0,46.0,51.0
8.576627254486084,,,-1351.0,3270.0,-3007.0,-14.0,36.0,-22.0
8.59705662727356,,,-1448.0,1448.0,-2251.0,-29.0,37.0,-37.0
8.617545127868652,,,-1567.0,-3675.0,527.0,-24.0,54.0,-8.0
8.638059616088867,,,-2259.0,-5577.0,794.0,-9.0,64.0,-9.0
8.65834355354309,,,-3105.0,-6123.0,361.0,-2.0,68.0,-12.0
8.679043531417847,,,-4588.0,-6392.0,352.0,-7.0,81.0,27.0
8.699352979660034,,,-5493.0,-7159.0,1099.0,-1.0,85.0,54.0
8.720054626464844,,,-6454.0,-7511.0,2062.0,20.0,89.0,71.0
8.74030613899231,,,-7561.0,-4686.0,6970.0,58.0,105.0,64.0
8.760852098464966,,,-7853.0,-2552.0,7202.0,64.0,104.0,29.0
8.78121018409729,,,-8545.0,-2057.0,6141.0,49.0,96.0,-7.0
8.801721334457397,,,-9131.0,-3394.0,8264.0,40.0,86.0,10.0
8.822175025939941,,,-9089.0,-3002.0,7846.0,43.0,87.0,30.0
8.842784881591797,,,-9595.0,-1488.0,4761.0,44.0,69.0,49.0
8.863016605377197,,,-9184.0,-622.0,4018.0,40.0,46.0,52.0
8.883723735809326,,,-8129.0,-207.0,3096.0,44.0,34.0,58.0
8.90418791770935,,,-6415.0,-52.0,-573.0,93.0,31.0,107.0
8.924668550491333,,,-6577.0,1482.0,-2500.0,111.0,24.0,122.0
8.945077180862427,,,-6571.0,4014.0,-4219.0,107.0,13.0,110.0
8.965616226196289,,,-5979.0,5070.0,-5659.0,53.0,0.0,25.0
8.985818147659302,,,-6270.0,2134.0,-5376.0,46.0,-6.0,18.0
9.006421566009521,,,-6701.0,-1102.0,-5651.0,53.0,-9.0,34.0
9.02678918838501,,,-6623.0,-2818.0,-5389.0,45.0,8.0,71.0
9.047362089157104,,,-6368.0,-1753.0,-2602.0,43.0,18.0,50.0
9.067721605300903,,,-5858.0,-1400.0,400.0,35.0,31.0,5.0
9.088378429412842,,,-5214.0,-4542.0,4043.0,10.0,43.0,-43.0
9.108981132507324,,,-5382.0,-6593.0,5669.0,14.0,54.0,1.0
9.129442691802979,,,-6393.0,-7128.0,5348.0,27.0,67.0,46.0
9.14993691444397,,,-6294.0,-6707.0,4690.0,22.0,65.0,44.0
9.17451286315918,,,-6101.0,-6811.0,4829.0,26.0,69.0,50.0
9.194937229156494,,,-7574.0,-7376.0,4370.0,41.0,62.0,82.0
9.215473651885986,,,-7913.0,-7339.0,4612.0,44.0,51.0,81.0
9.235682249069214,,,-6769.0,-6794.0,6603.0,57.0,41.0,55.0
9.256218194961548,,,-5754.0,-6162.0,7208.0,55.0,46.0,61.0
9.272619009017944,,,-5151.0,-5594.0,6850.0,46.0,51.0,78.0
9.292985200881958,,,-4918.0,-4338.0,4330.0,15.0,51.0,119.0
9.313382387161255,,,-4189.0,-2543.0,2424.0,-2.0,59.0,154.0
9.333931922912598,,,-2337.0,158.0,-213.0,-15.0,75.0,181.0
9.354395866394043,,,3836.0,4979.0,-3795.0,-29.0,107.0,166.0
9.374900102615356,,,8503.0,4781.0,-2696.0,-19.0,125.0,126.0
9.395383358001709,,,11562.0,4913.0,737.0,22.0,146.0,83.0
9.41583800315857,,,8180.0,6235.0,5806.0,17.0,171.0,214.0
9.436217546463013,,,2722.0,6014.0,4090.0,15.0,168.0,245.0
9.456797361373901,,,-3629.0,3846.0,1713.0,34.0,153.0,223.0
9.477248191833496,,,-9387.0,1751.0,-960.0,47.0,128.0,163.0
9.497886896133423,,,-12818.0,307.0,-2943.0,11.0,120.0,111.0
9.518320560455322,,,-13559.0,-3853.0,-7112.0,-74.0,116.0,17.0
9.538785934448242,,,-10697.0,-5717.0,-8708.0,-64.0,101.0,-19.0
9.55935263633728,,,-7211.0,-7904.0,-8503.0,-60.0,77.0,-39.0
9.579846382141113,,,952.0,-4612.0,-5207.0,-89.0,24.0,-59.0
9.600308895111084,,,4431.0,-2270.0,-1856.0,-72.0,34.0,7.0
9.620793104171753,,,6920.0,-1873.0,2562.0,-22.0,54.0,68.0
9.641238927841187,,,7624.0,-4172.0,3359.0,39.0,49.0,57.0
9.661726236343384,,,7503.0,-3987.0,2775.0,48.0,32.0,86.0
9.682193040847778,,,6804.0,-2217.0,4726.0,46.0,20.0,124.0
9.70272421836853,,,2711.0,1660.0,5966.0,40.0,17.0,113.0
9.72316288948059,,,567.0,1819.0,5452.0,41.0,17.0,137.0
9.743577003479004,,,-2335.0,727.0,3151.0,39.0,16.0,111.0
9.764160633087158,,,-3012.0,229.0,1990.0,30.0,14.0,70.0
9.784473896026611,,,-2730.0,237.0,910.0,17.0,15.0,44.0
9.804920434951782,,,500.0,1851.0,-824.0,-7.0,30.0,27.0
9.825450897216797,,,2195.0,2579.0,-1154.0,-18.0,37.0,51.0
9.845913887023926,,,3241.0,2902.0,-1141.0,-29.0,43.0,95.0
9.866265535354614,,,3230.0,3119.0,-264.0,-41.0,47.0,163.0
9.886829137802124,,,2764.0,3020.0,722.0,-38.0,45.0,171.0
9.907378196716309,,,2145.0,2218.0,1927.0,-30.0,39.0,167.0
9.92781376838684,,,2057.0,-658.0,3508.0,-11.0,44.0,153.0
9.948506832122803,,,3300.0,-1884.0,3151.0,-5.0,56.0,135.0
9.969062328338623,,,5004.0,-2331.0,2369.0,-11.0,61.0,107.0
9.989397287368774,,,6911.0,-985.0,2674.0,-18.0,54.0,109.0
10.0099458694458,,,6877.0,-430.0,2917.0,-15.0,48.0,125.0
10.030399322509766,,,5769.0,59.0,1763.0,1.0,46.0,163.0
10.050972938537598,,,5000.0,-340.0,692.0,10.0,47.0,171.0
10.071438550949097,,,4408.0,-1318.0,-368.0,17.0,46.0,157.0
10.091897964477539,,,4114.0,-3118.0,-2179.0,13.0,37.0,108.0
10.112338781356812,,,4267.0,-3116.0,-2847.0,10.0,30.0,84.0
10.13288426399231,,,4323.0,-2574.0,-3361.0,8.0,25.0,65.0
10.15332555770874,,,4198.0,-1388.0,-3901.0,4.0,22.0,60.0
10.173895835876465,,,4038.0,-1121.0,-3818.0,0.0,22.0,62.0
10.194385528564453,,,3888.0,-968.0,-3403.0,-4.0,23.0,61.0
10.214801549911499,,,4161.0,-561.0,-2142.0,-8.0,21.0,52.0
10.235161304473877,,,4504.0,-172.0,-1559.0,-6.0,19.0,50.0
10.25575590133667,,,5056.0,133.0,-732.0,-2.0,19.0,44.0
10.276444435119629,,,5124.0,-35.0,-383.0,-1.0,17.0,39.0
10.296991348266602,,,4975.0,-229.0,-151.0,-1.0,16.0,35.0
10.317068338394165,,,4726.0,-370.0,-85.0,1.0,16.0,27.0
10.337839126586914,,,4598.0,-441.0,-140.0,1.0,16.0,16.0
10.354254961013794,,,4667.0,-441.0,-346.0,-1.0,14.0,7.0
10.374618291854858,,,4865.0,-289.0,-946.0,-9.0,12.0,-2.0
10.394994020462036,,,5010.0,-73.0,-998.0,-13.0,8.0,-4.0
10.415380001068115,,,5097.0,355.0,-918.0,-14.0,2.0,-3.0
10.435809850692749,,,4649.0,1064.0,-568.0,-9.0,-8.0,1.0
10.45661735534668,,,3982.0,907.0,-481.0,-8.0,-11.0,-7.0
10.477127075195312,,,3093.0,543.0,-423.0,-9.0,-12.0,-16.0
10.497647047042847,,,1041.0,26.0,417.0,-17.0,-8.0,-43.0
10.51798152923584,,,314.0,58.0,1269.0,-19.0,-7.0,-47.0
10.538593292236328,,,-213.0,571.0,2605.0,-14.0,-3.0,-19.0
10.559105157852173,,,-181.0,974.0,2518.0,-7.0,3.0,2.0
10.579450607299805,,,-50.0,1178.0,2177.0,0.0,9.0,20.0
10.599762439727783,,,340.0,459.0,1587.0,7.0,15.0,33.0
10.620344638824463,,,431.0,-102.0,1187.0,7.0,16.0,25.0
10.640687704086304,,,518.0,-569.0,848.0,5.0,17.0,14.0
10.661177635192871,,,765.0,-786.0,331.0,3.0,13.0,4.0
10.68181324005127,,,834.0,-790.0,-22.0,3.0,14.0,4.0
10.702426671981812,,,923.0,-857.0,-446.0,2.0,16.0,8.0
10.722884178161621,,,1164.0,-904.0,-1488.0,1.0,20.0,29.0
10.743417024612427,,,1165.0,-890.0,-1917.0,1.0,22.0,29.0
10.763720035552979,,,969.0,-828.0,-1848.0,3.0,28.0,19.0
10.784322261810303,,,1166.0,-782.0,-1326.0,4.0,28.0,8.0
10.804588317871094,,,1460.0,-564.0,-850.0,4.0,26.0,-7.0
10.825156688690186,,,2031.0,557.0,-237.0,7.0,28.0,-18.0
10.845592975616455,,,2198.0,996.0,-16.0,9.0,28.0,-13.0
10.865836381912231,,,2191.0,1204.0,284.0,11.0,29.0,-2.0
10.886343002319336,,,1898.0,1172.0,1129.0,8.0,27.0,9.0
10.90690279006958,,,1854.0,1343.0,1491.0,8.0,25.0,4.0
10.92728877067566,,,2034.0,1661.0,1856.0,12.0,21.0,1.0
10.947879314422607,,,2723.0,1595.0,2264.0,23.0,16.0,13.0
10.968354940414429,,,2932.0,1203.0,2083.0,25.0,19.0,11.0
10.988664865493774,,,2854.0,931.0,1848.0,26.0,23.0,4.0
11.009162902832031,,,2116.0,839.0,2250.0,23.0,22.0,-13.0
11.029641389846802,,,1779.0,1157.0,2665.0,22.0,17.0,-21.0
11.050042152404785,,,1953.0,1925.0,2864.0,27.0,12.0,-32.0
11.070691585540771,,,2240.0,1905.0,2641.0,23.0,14.0,-23.0
11.091090679168701,,,2510.0,1769.0,2456.0,18.0,16.0,-8.0
11.111572027206421,,,2949.0,1536.0,2399.0,8.0,13.0,17.0
11.132007122039795,,,3140.0,1455.0,2159.0,5.0,10.0,22.0
11.152633428573608,,,3241.0,1327.0,1728.0,3.0,6.0,22.0
11.173210859298706,,,3545.0,1047.0,987.0,-2.0,0.0,11.0
11.193527460098267,,,3788.0,1033.0,786.0,-7.0,-3.0,5.0
11.214054584503174,,,3887.0,1188.0,619.0,-9.0,-5.0,0.0
11.234575033187866,,,3348.0,1537.0,378.0,-9.0,-1.0,2.0
11.255031108856201,,,2950.0,1436.0,399.0,-8.0,-1.0,5.0
11.275307655334473,,,2251.0,1230.0,406.0,-10.0,-3.0,-1.0
11.295875310897827,,,2139.0,1466.0,258.0,-10.0,-5.0,-10.0
11.316366910934448,,,2184.0,1861.0,171.0,-8.0,-6.0,-11.0
11.336836099624634,,,2253.0,2396.0,170.0,1.0,-1.0,10.0
11.35722804069519,,,2323.0,2016.0,290.0,1.0,-3.0,20.0
11.3778235912323,,,2250.0,1275.0,369.0,-3.0,-7.0,24.0
11.398086071014404,,,1125.0,-275.0,241.0,-15.0,-10.0,14.0
11.41875696182251,,,782.0,-618.0,425.0,-19.0,-13.0,5.0
11.43501877784729,,,650.0,-595.0,696.0,-21.0,-22.0,-2.0
11.45569133758545,,,-360.0,-93.0,571.0,-17.0,-22.0,4.0
11.476069927215576,,,-921.0,43.0,353.0,-14.0,-17.0,7.0
11.496582984924316,,,-1299.0,3.0,138.0,-9.0,-13.0,9.0
11.516953229904175,,,-1462.0,-498.0,-2.0,-1.0,-6.0,16.0
11.537530422210693,,,-1277.0,-730.0,75.0,1.0,-6.0,18.0
11.557903289794922,,,-924.0,-973.0,212.0,2.0,-5.0,16.0
11.578486919403076,,,-846.0,-923.0,320.0,3.0,-4.0,15.0
11.598873138427734,,,-804.0,-742.0,444.0,4.0,-3.0,17.0
11.619459867477417,,,-639.0,-411.0,368.0,8.0,-6.0,23.0
11.639797687530518,,,-571.0,-311.0,183.0,10.0,-8.0,23.0
11.660752296447754,,,-554.0,-161.0,51.0,12.0,-9.0,20.0
11.685216426849365,,,-704.0,75.0,30.0,20.0,-12.0,18.0
11.70580267906189,,,-844.0,150.0,-109.0,22.0,-11.0,19.0
11.726307153701782,,,-1169.0,353.0,-241.0,27.0,-9.0,12.0
11.74680233001709,,,-1475.0,471.0,27.0,31.0,-9.0,10.0
11.76720404624939,,,-1800.0,591.0,403.0,32.0,-6.0,11.0
11.787837505340576,,,-1803.0,991.0,953.0,22.0,0.0,10.0
11.808283805847168,,,-1648.0,1369.0,1278.0,19.0,1.0,14.0
11.828703880310059,,,-1563.0,1895.0,1790.0,21.0,4.0,22.0
11.849122762680054,,,-768.0,2556.0,2833.0,17.0,12.0,45.0
11.869809627532959,,,-190.0,2698.0,3145.0,9.0,16.0,55.0
11.8902587890625,,,995.0,2415.0,4147.0,-4.0,20.0,73.0
11.910686016082764,,,1663.0,1912.0,4640.0,-9.0,22.0,74.0
11.931088209152222,,,2416.0,1378.0,4940.0,-13.0,25.0,68.0
11.951582193374634,,,3710.0,1030.0,4298.0,-17.0,23.0,47.0
11.972022294998169,,,3872.0,1368.0,3067.0,-19.0,23.0,37.0
11.992578506469727,,,3880.0,1757.0,1610.0,-21.0,22.0,28.0
12.012771129608154,,,3753.0,2404.0,-1168.0,-27.0,9.0,25.0
12.033328771591187,,,3554.0,2792.0,-2626.0,-24.0,4.0,31.0
12.053837776184082,,,3468.0,3096.0,-3969.0,-19.0,0.0,34.0
12.074275016784668,,,3435.0,2776.0,-5736.0,-12.0,-9.0,21.0
12.094937801361084,,,3215.0,2498.0,-5955.0,-8.0,-13.0,15.0
12.115358114242554,,,2904.0,2288.0,-5720.0,-4.0,-18.0,10.0
12.13599967956543,,,2454.0,1772.0,-3721.0,-3.0,-28.0,-9.0
12.152409553527832,,,1987.0,1141.0,-1806.0,-3.0,-27.0,-20.0
12.172762632369995,,,-138.0,397.0,2863.0,2.0,-15.0,-35.0
12.193263053894043,,,-1025.0,1493.0,3665.0,8.0,-14.0,-35.0
12.213910102844238,,,-1562.0,2531.0,3823.0,10.0,-11.0,-28.0
12.234227895736694,,,-2515.0,1497.0,5537.0,4.0,0.0,-2.0
12.254658937454224,,,-2654.0,1636.0,5557.0,2.0,7.0,-8.0
12.275095462799072,,,-2716.0,2509.0,5177.0,2.0,15.0,-7.0
12.295677900314331,,,-1777.0,3370.0,4906.0,14.0,22.0,24.0
12.31612491607666,,,-995.0,3249.0,4462.0,16.0,23.0,40.0
12.336437463760376,,,-172.0,3129.0,3808.0,18.0,22.0,48.0
12.356741428375244,,,1236.0,3074.0,2246.0,24.0,10.0,58.0
12.377124071121216,,,1645.0,2976.0,1363.0,26.0,5.0,62.0
12.397712230682373,,,2443.0,3016.0,-471.0,28.0,-7.0,71.0
12.418124198913574,,,3059.0,3237.0,-1116.0,25.0,-13.0,70.0
12.438627481460571,,,3623.0,3577.0,-1398.0,23.0,-21.0,69.0
12.459084510803223,,,4242.0,3573.0,-315.0,21.0,-37.0,52.0
12.479612112045288,,,4474.0,2846.0,1378.0,14.0,-43.0,36.0
12.50060749053955,,,4159.0,1936.0,3341.0,4.0,-50.0,29.0
12.521036148071289,,,1837.0,938.0,5870.0,-6.0,-49.0,35.0
12.541467189788818,,,1078.0,1127.0,6600.0,-11.0,-47.0,39.0
12.561803102493286,,,520.0,1279.0,7409.0,-17.0,-42.0,48.0
12.582392930984497,,,-327.0,1319.0,7926.0,-18.0,-35.0,58.0
12.60288381576538,,,-205.0,1121.0,7686.0,-19.0,-35.0,48.0
12.623341083526611,,,227.0,657.0,7588.0,-20.0,-37.0,34.0
12.643690586090088,,,964.0,-818.0,7256.0,-19.0,-44.0,20.0
12.664300680160522,,,580.0,-1423.0,6796.0,-21.0,-50.0,13.0
12.684776067733765,,,-1932.0,-2457.0,6377.0,-34.0,-71.0,-6.0
12.705379247665405,,,-3324.0,-2950.0,6008.0,-37.0,-76.0,-6.0
12.725682258605957,,,-4479.0,-3070.0,4946.0,-32.0,-73.0,-1.0
12.746306419372559,,,-5742.0,-3094.0,2595.0,-17.0,-60.0,8.0
12.766627311706543,,,-5684.0,-3219.0,1400.0,-14.0,-52.0,17.0
12.78726840019226,,,-5354.0,-3129.0,197.0,-18.0,-43.0,22.0
12.807564973831177,,,-5017.0,-2724.0,-893.0,-23.0,-34.0,24.0
12.828189611434937,,,-4770.0,-2035.0,-1823.0,-23.0,-23.0,23.0
12.848423719406128,,,-4354.0,-1275.0,-2569.0,-19.0,-14.0,20.0
12.86896014213562,,,-3056.0,281.0,-4166.0,-16.0,-3.0,8.0
12.889299154281616,,,-2319.0,1173.0,-5046.0,-15.0,-2.0,4.0
12.909899473190308,,,43.0,2539.0,-5152.0,-14.0,-10.0,15.0
12.930275678634644,,,1308.0,2228.0,-4146.0,-16.0,-19.0,23.0
12.950825691223145,,,2049.0,1535.0,-2975.0,-19.0,-23.0,28.0
12.971199035644531,,,2363.0,314.0,622.0,-30.0,-27.0,27.0
12.991709232330322,,,2167.0,-72.0,2612.0,-37.0,-32.0,25.0
13.012133359909058,,,1886.0,-329.0,4199.0,-38.0,-39.0,21.0
13.032683610916138,,,1682.0,-245.0,6180.0,-42.0,-51.0,16.0
13.053115129470825,,,1644.0,280.0,6391.0,-43.0,-54.0,12.0
13.073709964752197,,,1615.0,643.0,6330.0,-42.0,-53.0,6.0
13.094093799591064,,,1252.0,-123.0,6345.0,-48.0,-59.0,-7.0
13.114429712295532,,,602.0,-658.0,6123.0,-50.0,-62.0,-13.0
13.135000705718994,,,-298.0,-842.0,5818.0,-51.0,-69.0,-14.0
13.155893802642822,,,-2096.0,-795.0,5432.0,-48.0,-75.0,5.0
13.176383018493652,,,-2694.0,-937.0,5342.0,-45.0,-69.0,16.0
13.196747064590454,,,-3844.0,-1988.0,5078.0,-47.0,-60.0,13.0
13.217199563980103,,,-4399.0,-2607.0,4528.0,-46.0,-58.0,-2.0
13.23348879814148,,,-4637.0,-2855.0,3696.0,-40.0,-61.0,-17.0
13.254044532775879,,,-4712.0,-2774.0,2057.0,-39.0,-60.0,-38.0
13.27459192276001,,,-4918.0,-2617.0,1541.0,-38.0,-55.0,-49.0
13.295117378234863,,,-5382.0,-2404.0,1268.0,-39.0,-50.0,-58.0
13.315397262573242,,,-7199.0,-1517.0,1352.0,-46.0,-41.0,-54.0
13.335916519165039,,,-7653.0,-977.0,1511.0,-40.0,-38.0,-53.0
13.35649847984314,,,-7285.0,-506.0,1585.0,-29.0,-29.0,-49.0
13.376920223236084,,,-5948.0,-656.0,1788.0,-18.0,-16.0,-34.0
13.397459983825684,,,-5314.0,-871.0,1613.0,-18.0,-13.0,-26.0
13.41790509223938,,,-4675.0,-566.0,1672.0,-8.0,-5.0,-28.0
13.438274621963501,,,-4464.0,-353.0,1777.0,1.0,-2.0,-20.0
13.459028720855713,,,-4015.0,-563.0,1702.0,1.0,2.0,-13.0
13.479287385940552,,,-3767.0,-1149.0,1915.0,0.0,8.0,-14.0
13.499805212020874,,,-3959.0,-1101.0,2451.0,4.0,11.0,1.0
13.52035117149353,,,-3697.0,-1174.0,2606.0,8.0,15.0,14.0
13.540596008300781,,,-2328.0,-1853.0,2611.0,2.0,15.0,20.0
13.56089448928833,,,-2241.0,-1777.0,2884.0,-3.0,14.0,22.0
13.581209659576416,,,-2344.0,-1510.0,3023.0,-3.0,14.0,21.0
13.601848602294922,,,-2178.0,-1143.0,2968.0,-4.0,14.0,8.0
13.622403383255005,,,-2108.0,-1004.0,2909.0,-3.0,14.0,2.0
13.642789363861084,,,-2075.0,-710.0,2773.0,-1.0,16.0,5.0
13.663271427154541,,,-1879.0,-614.0,2675.0,5.0,20.0,22.0
13.683670043945312,,,-1606.0,-736.0,2748.0,8.0,21.0,24.0
13.704200506210327,,,-957.0,-1250.0,3571.0,9.0,14.0,15.0
13.724545001983643,,,-793.0,-1269.0,3794.0,9.0,11.0,6.0
13.745055198669434,,,-726.0,-1333.0,3574.0,8.0,11.0,2.0
13.765510320663452,,,-816.0,-1460.0,3166.0,6.0,13.0,-5.0
13.786180973052979,,,-736.0,-1117.0,3194.0,6.0,8.0,-8.0
13.806539535522461,,,-543.0,-847.0,3320.0,6.0,5.0,1.0
13.826908826828003,,,118.0,-1185.0,3618.0,2.0,5.0,12.0
13.847431659698486,,,290.0,-1519.0,3769.0,-3.0,3.0,2.0
13.868001461029053,,,65.0,-1353.0,3703.0,-5.0,2.0,-9.0
13.88854455947876,,,-932.0,57.0,3131.0,2.0,7.0,-10.0
13.909004211425781,,,-1119.0,217.0,3146.0,6.0,7.0,-3.0
13.929397821426392,,,-414.0,-544.0,3709.0,4.0,3.0,5.0
13.950084924697876,,,-45.0,-758.0,3635.0,2.0,0.0,-1.0
13.970507383346558,,,-16.0,-689.0,3519.0,2.0,-2.0,-10.0
13.990960359573364,,,-259.0,-353.0,3516.0,5.0,-2.0,-14.0
14.011297702789307,,,-225.0,-387.0,3690.0,7.0,0.0,-11.0
14.031816244125366,,,-116.0,-528.0,3734.0,7.0,-2.0,-8.0
14.052294492721558,,,-18.0,-429.0,3497.0,6.0,-1.0,-1.0
14.073007345199585,,,3.0,-315.0,3526.0,7.0,0.0,2.0
14.093326330184937,,,38.0,-293.0,3656.0,6.0,1.0,6.0
14.113788366317749,,,270.0,-592.0,4132.0,4.0,-3.0,-4.0
14.134166240692139,,,351.0,-571.0,4057.0,4.0,-6.0,-10.0
14.154888391494751,,,251.0,-481.0,3954.0,4.0,-9.0,-17.0
14.175283908843994,,,-110.0,-227.0,3667.0,5.0,-9.0,-13.0
14.195651531219482,,,-220.0,-262.0,3548.0,5.0,-8.0,-9.0
14.216081619262695,,,-221.0,-323.0,3157.0,8.0,-3.0,-7.0
14.23682165145874,,,-86.0,-410.0,3044.0,6.0,-2.0,-6.0
14.257094383239746,,,-89.0,-429.0,3061.0,6.0,-1.0,-6.0
14.277571439743042,,,-12.0,-447.0,3309.0,6.0,-2.0,-6.0
14.298005104064941,,,133.0,-350.0,3267.0,6.0,-2.0,-3.0
14.318707704544067,,,145.0,-353.0,3178.0,4.0,-2.0,6.0
14.339159965515137,,,87.0,-403.0,3205.0,4.0,-2.0,3.0
14.35973834991455,,,127.0,-471.0,3283.0,3.0,-3.0,-4.0
14.380573511123657,,,233.0,-374.0,3509.0,1.0,-6.0,-8.0
14.400952339172363,,,140.0,-431.0,3640.0,1.0,-6.0,-3.0
14.421337127685547,,,-15.0,-603.0,3767.0,1.0,-5.0,-3.0
14.44178318977356,,,-416.0,-445.0,3839.0,5.0,-11.0,-5.0
14.462338209152222,,,-467.0,-378.0,3630.0,3.0,-12.0,1.0
14.482716798782349,,,-380.0,-722.0,3671.0,1.0,-10.0,7.0
14.503193616867065,,,-638.0,-1512.0,4272.0,5.0,-10.0,2.0
14.523781776428223,,,-357.0,-1636.0,4110.0,14.0,-11.0,-10.0
14.544238567352295,,,325.0,-2039.0,3719.0,14.0,-16.0,-16.0
14.564686059951782,,,861.0,-2143.0,2981.0,-2.0,-19.0,-13.0
14.585044860839844,,,322.0,-1831.0,2791.0,0.0,-18.0,-19.0
14.605499744415283,,,-479.0,-917.0,1829.0,5.0,-13.0,-35.0
14.626044750213623,,,-469.0,-491.0,1682.0,4.0,-18.0,-35.0
14.646358728408813,,,-762.0,195.0,1174.0,5.0,-13.0,-28.0
14.666735649108887,,,-2041.0,214.0,948.0,11.0,-3.0,-6.0
14.687303304672241,,,-2299.0,-71.0,895.0,19.0,-2.0,1.0
14.707666158676147,,,-2194.0,-110.0,783.0,25.0,2.0,-1.0
14.728275060653687,,,-1855.0,-822.0,403.0,28.0,14.0,-13.0
14.748667001724243,,,-1550.0,-1994.0,926.0,26.0,16.0,-9.0
14.769096374511719,,,-1184.0,-2992.0,1177.0,24.0,13.0,-5.0
14.789659023284912,,,-1240.0,-3067.0,623.0,19.0,29.0,-20.0
14.810171365737915,,,-1836.0,-2770.0,719.0,16.0,34.0,-33.0
14.830650806427002,,,-2731.0,-1875.0,1202.0,21.0,42.0,-74.0
14.850999355316162,,,-2169.0,-1427.0,1125.0,19.0,48.0,-82.0
14.871938467025757,,,-1397.0,-866.0,908.0,14.0,57.0,-81.0
14.892496347427368,,,-232.0,-864.0,2001.0,1.0,68.0,-88.0
14.912766933441162,,,857.0,-682.0,2504.0,-5.0,73.0,-98.0
14.933234214782715,,,2201.0,-213.0,2869.0,-10.0,78.0,-106.0
14.953762531280518,,,3522.0,-132.0,4608.0,-24.0,76.0,-118.0
14.974152565002441,,,3441.0,-378.0,5816.0,-27.0,74.0,-119.0
14.994818925857544,,,3539.0,-243.0,6596.0,-28.0,73.0,-123.0
15.015257358551025,,,3774.0,793.0,6261.0,-30.0,77.0,-127.0
15.031711101531982,,,3590.0,1052.0,5889.0,-38.0,80.0,-109.0
15.051873207092285,,,3350.0,1275.0,5680.0,-43.0,82.0,-87.0
15.072519540786743,,,4666.0,1503.0,4735.0,-48.0,69.0,-78.0
15.092874765396118,,,5860.0,1396.0,3512.0,-49.0,60.0,-80.0
15.113490581512451,,,6684.0,983.0,1524.0,-47.0,54.0,-77.0
15.133883953094482,,,6393.0,1036.0,1947.0,-28.0,50.0,-62.0
15.154235363006592,,,6531.0,833.0,2381.0,-13.0,39.0,-55.0
15.174854040145874,,,7445.0,838.0,1469.0,-11.0,18.0,-49.0
15.19536018371582,,,7121.0,1119.0,1303.0,-9.0,13.0,-39.0
15.215770244598389,,,6276.0,1466.0,1724.0,-1.0,10.0,-22.0
15.23638916015625,,,5082.0,1126.0,2350.0,4.0,-6.0,8.0
15.256710529327393,,,4891.0,900.0,2277.0,3.0,-12.0,11.0
15.277213096618652,,,4626.0,735.0,2476.0,2.0,-17.0,10.0
15.297751903533936,,,3490.0,723.0,3728.0,7.0,-26.0,16.0
15.318504571914673,,,2973.0,655.0,4237.0,8.0,-29.0,20.0
15.338974237442017,,,1992.0,560.0,4203.0,6.0,-34.0,29.0
15.359495639801025,,,1450.0,654.0,3820.0,3.0,-33.0,32.0
15.379783153533936,,,834.0,874.0,3565.0,2.0,-32.0,37.0
15.400326490402222,,,-210.0,909.0,3059.0,1.0,-27.0,51.0
15.420689344406128,,,-409.0,585.0,2634.0,0.0,-27.0,55.0
15.44133448600769,,,-491.0,237.0,2061.0,0.0,-27.0,57.0
15.461829423904419,,,-460.0,-493.0,742.0,2.0,-26.0,56.0
15.482348680496216,,,-594.0,-845.0,104.0,2.0,-25.0,56.0
15.502713918685913,,,-954.0,-1148.0,-503.0,2.0,-24.0,54.0
15.523323059082031,,,-1730.0,-1555.0,-1498.0,2.0,-17.0,42.0
15.543739080429077,,,-1780.0,-1773.0,-1817.0,2.0,-14.0,30.0
15.564245223999023,,,-1703.0,-1923.0,-2069.0,2.0,-8.0,17.0
15.584569454193115,,,-1532.0,-1887.0,-1880.0,0.0,8.0,-6.0
15.605122804641724,,,-1383.0,-1832.0,-1265.0,-1.0,14.0,-14.0
15.625420808792114,,,-744.0,-1694.0,7.0,-3.0,23.0,-24.0
15.645843029022217,,,-360.0,-1565.0,382.0,-5.0,26.0,-25.0
15.66637110710144,,,16.0,-1464.0,619.0,-7.0,28.0,-28.0
15.686870813369751,,,701.0,-1298.0,796.0,-11.0,29.0,-39.0
15.707359075546265,,,1014.0,-1317.0,954.0,-14.0,27.0,-46.0
15.727843046188354,,,1324.0,-1272.0,1190.0,-17.0,25.0,-53.0
15.748398542404175,,,1646.0,-792.0,1553.0,-17.0,20.0,-58.0
15.768635988235474,,,1733.0,-668.0,1692.0,-17.0,19.0,-54.0
15.789012670516968,,,1818.0,-605.0,1793.0,-17.0,16.0,-50.0
15.8094642162323,,,1973.0,-443.0,1950.0,-19.0,12.0,-45.0
15.83002781867981,,,1896.0,-294.0,2153.0,-18.0,9.0,-41.0
15.85052752494812,,,1803.0,-70.0,2202.0,-17.0,1.0,-36.0
15.871093988418579,,,1729.0,-53.0,1910.0,-16.0,1.0,-34.0
15.891403198242188,,,1690.0,-223.0,1779.0,-15.0,2.0,-32.0
15.911885023117065,,,1849.0,-443.0,2090.0,-7.0,-7.0,-34.0
15.932459115982056,,,2031.0,-459.0,2082.0,-4.0,-12.0,-33.0
15.952893257141113,,,2095.0,-610.0,1919.0,-4.0,-16.0,-32.0
15.973428726196289,,,1603.0,-1116.0,1379.0,-9.0,-18.0,-35.0
15.993916034698486,,,1293.0,-1355.0,1175.0,-13.0,-21.0,-32.0
16.014262914657593,,,957.0,-1486.0,904.0,-14.0,-24.0,-28.0
16.034831762313843,,,245.0,-1737.0,-60.0,-15.0,-20.0,-18.0
16.05534052848816,,,-47.0,-2003.0,-532.0,-15.0,-16.0,-16.0
16.075798988342285,,,-292.0,-2414.0,-744.0,-16.0,-16.0,-20.0
16.09634017944336,,,-1088.0,-3009.0,-922.0,-17.0,-18.0,-23.0
16.112908601760864,,,-1618.0,-3328.0,-1084.0,-15.0,-17.0,-27.0
16.13318681716919,,,-2704.0,-4011.0,-1097.0,-17.0,-14.0,-50.0
16.153847455978394,,,-3001.0,-3875.0,-748.0,-17.0,-16.0,-61.0
16.174200773239136,,,-3022.0,-3493.0,-403.0,-16.0,-21.0,-68.0
16.194732427597046,,,-3111.0,-3271.0,588.0,-19.0,-33.0,-78.0
16.215140342712402,,,-3675.0,-3203.0,1798.0,-20.0,-42.0,-79.0
16.23568844795227,,,-4316.0,-2633.0,3415.0,-18.0,-51.0,-78.0
16.256025314331055,,,-4402.0,-1047.0,5916.0,-2.0,-59.0,-69.0
16.276551246643066,,,-4139.0,-741.0,6404.0,6.0,-60.0,-59.0
16.29687809944153,,,-3876.0,-370.0,6552.0,11.0,-64.0,-47.0
16.31747603416443,,,-2471.0,513.0,5562.0,16.0,-78.0,-23.0
16.33781599998474,,,-1960.0,354.0,4844.0,20.0,-78.0,-1.0
16.358562707901,,,-1578.0,-752.0,3483.0,23.0,-72.0,27.0
16.37877345085144,,,-763.0,-976.0,2845.0,30.0,-74.0,26.0
16.399346590042114,,,590.0,-1114.0,2323.0,47.0,-74.0,24.0
16.419748783111572,,,2225.0,-3942.0,2401.0,80.0,-80.0,-5.0
16.440299034118652,,,1627.0,-5350.0,2097.0,76.0,-90.0,-41.0
16.460607528686523,,,702.0,-5083.0,1640.0,72.0,-95.0,-71.0
16.481053590774536,,,-1997.0,-3464.0,453.0,88.0,-89.0,-92.0
16.501492261886597,,,-2509.0,-2837.0,-1444.0,92.0,-80.0,-91.0
16.522215366363525,,,-1821.0,-1598.0,-4241.0,84.0,-71.0,-96.0
16.542558908462524,,,748.0,2824.0,-9235.0,58.0,-35.0,-62.0
16.562975645065308,,,1083.0,2416.0,-10659.0,51.0,-5.0,-21.0
16.58340883255005,,,1151.0,294.0,-10655.0,38.0,14.0,-34.0
16.603907585144043,,,741.0,-2644.0,-4222.0,54.0,8.0,-155.0
16.624558925628662,,,-495.0,-2904.0,-1416.0,46.0,7.0,-156.0
16.644877195358276,,,-1770.0,-2846.0,4365.0,18.0,20.0,-119.0
16.66531991958618,,,-2151.0,-3498.0,6422.0,17.0,27.0,-92.0
16.685850381851196,,,-2241.0,-4396.0,7802.0,15.0,31.0,-33.0
16.710455894470215,,,-2282.0,-6095.0,7495.0,-13.0,31.0,48.0
16.7310733795166,,,-2592.0,-6602.0,6042.0,-34.0,27.0,51.0
16.751436948776245,,,-1795.0,-5655.0,2662.0,-75.0,24.0,27.0
16.77184271812439,,,-1598.0,-5097.0,600.0,-84.0,25.0,37.0
16.792259216308594,,,-1607.0,-4458.0,-2261.0,-87.0,24.0,53.0
16.812926292419434,,,27.0,-4254.0,-6420.0,-107.0,25.0,52.0
16.829298496246338,,,827.0,-5598.0,-5747.0,-98.0,17.0,42.0
16.84989070892334,,,749.0,-7413.0,-4406.0,-86.0,2.0,16.0
16.87020230293274,,,1109.0,-3147.0,729.0,-98.0,-31.0,-61.0
16.890828132629395,,,2362.0,-909.0,3646.0,-97.0,-40.0,-135.0
16.91126537322998,,,3117.0,443.0,5534.0,-71.0,-61.0,-91.0
16.931690454483032,,,3779.0,4486.0,6344.0,-46.0,-51.0,97.0
16.952094078063965,,,2799.0,6425.0,6461.0,-64.0,-35.0,153.0
16.97275137901306,,,-1459.0,8231.0,3878.0,-96.0,26.0,200.0
16.993155241012573,,,-3325.0,7459.0,1758.0,-105.0,51.0,196.0
17.01365900039673,,,-3720.0,5947.0,-388.0,-110.0,75.0,171.0
17.033968925476074,,,313.0,4995.0,-2373.0,-73.0,88.0,110.0
17.0544376373291,,,3471.0,5415.0,-2869.0,-23.0,82.0,104.0
17.075117826461792,,,4366.0,4748.0,-3522.0,8.0,72.0,134.0
17.095672130584717,,,1429.0,3273.0,-4745.0,36.0,60.0,200.0
17.116027355194092,,,-138.0,3024.0,-4958.0,50.0,63.0,219.0
17.13647174835205,,,-796.0,3026.0,-5121.0,66.0,60.0,219.0
17.15681290626526,,,-965.0,3104.0,-5574.0,84.0,55.0,217.0
17.177541255950928,,,-1503.0,2795.0,-6131.0,100.0,50.0,226.0
17.19797444343567,,,-2619.0,1496.0,-6385.0,114.0,46.0,240.0
17.21835732460022,,,-4510.0,-4110.0,-7169.0,126.0,48.0,238.0
17.238730669021606,,,-3696.0,-7041.0,-8356.0,121.0,57.0,220.0
17.25947642326355,,,986.0,-9644.0,-10310.0,80.0,72.0,167.0
17.279834747314453,,,2873.0,-9543.0,-9601.0,58.0,83.0,122.0
17.30019783973694,,,4058.0,-8807.0,-7243.0,38.0,95.0,65.0
17.320675373077393,,,3979.0,-3804.0,-609.0,25.0,96.0,-69.0
17.341394424438477,,,3008.0,-593.0,3310.0,31.0,93.0,-113.0
17.36178731918335,,,1905.0,2385.0,6796.0,25.0,99.0,-124.0
17.382194995880127,,,3776.0,8355.0,11901.0,6.0,127.0,-91.0
17.402667999267578,,,5803.0,10194.0,12798.0,2.0,138.0,-96.0
17.423076391220093,,,6761.0,11498.0,12112.0,-3.0,135.0,-86.0
17.443721055984497,,,6653.0,11378.0,12157.0,-22.0,91.0,-60.0
17.464280128479004,,,6951.0,10457.0,11035.0,-25.0,86.0,-40.0
17.48456907272339,,,7106.0,9810.0,6313.0,0.0,83.0,54.0
17.5052433013916,,,7062.0,9401.0,3777.0,17.0,66.0,85.0
17.525711059570312,,,7040.0,8298.0,1247.0,25.0,36.0,93.0
17.54605007171631,,,6900.0,4381.0,-3349.0,19.0,0.0,60.0
17.566583156585693,,,6797.0,2288.0,-4592.0,11.0,-6.0,26.0
17.587114572525024,,,6318.0,907.0,-4683.0,0.0,-8.0,-9.0
17.607601404190063,,,4471.0,1441.0,-2629.0,-13.0,-13.0,-59.0
17.62792730331421,,,3682.0,2329.0,-1129.0,-13.0,-17.0,-56.0
17.648608207702637,,,2927.0,2918.0,208.0,-16.0,-20.0,-36.0
17.66897463798523,,,1532.0,3534.0,1628.0,-20.0,-22.0,-10.0
17.689621210098267,,,1007.0,3551.0,1660.0,-21.0,-24.0,-9.0
17.709985971450806,,,607.0,3311.0,1515.0,-20.0,-27.0,-14.0
17.730523824691772,,,41.0,2642.0,1360.0,-16.0,-31.0,-16.0
17.750919818878174,,,-139.0,2317.0,1040.0,-14.0,-31.0,-10.0
17.77150797843933,,,-516.0,1760.0,358.0,-13.0,-23.0,11.0
17.79185461997986,,,-676.0,1859.0,322.0,-9.0,-19.0,16.0
17.812220573425293,,,-749.0,2103.0,359.0,-7.0,-17.0,14.0
17.832838773727417,,,-659.0,2942.0,-74.0,-5.0,-16.0,12.0
17.853451251983643,,,-700.0,3168.0,-259.0,-3.0,-15.0,19.0
17.873754501342773,,,-841.0,3063.0,-138.0,0.0,-9.0,30.0
17.89436101913452,,,-850.0,2976.0,35.0,10.0,4.0,38.0
17.910641193389893,,,-387.0,3143.0,-153.0,14.0,8.0,37.0
17.93120288848877,,,367.0,3060.0,-110.0,16.0,10.0,37.0
17.95162081718445,,,1941.0,2153.0,381.0,11.0,6.0,34.0
17.971946001052856,,,2511.0,1690.0,539.0,7.0,5.0,24.0
17.99260401725769,,,3153.0,1197.0,1149.0,0.0,1.0,-11.0
18.01304841041565,,,3079.0,1139.0,1463.0,-6.0,-5.0,-25.0
18.0335795879364,,,2679.0,1107.0,1698.0,-12.0,-11.0,-35.0
18.05412197113037,,,1980.0,1070.0,1830.0,-15.0,-15.0,-40.0
18.07446050643921,,,1111.0,1108.0,1807.0,-16.0,-18.0,-45.0
18.094984531402588,,,288.0,1261.0,1747.0,-17.0,-21.0,-48.0
18.11546277999878,,,-962.0,1761.0,1461.0,-13.0,-22.0,-32.0
18.136040210723877,,,-1279.0,2007.0,1099.0,-8.0,-20.0,-16.0
18.156399488449097,,,-1452.0,2132.0,622.0,-4.0,-18.0,-2.0
18.1769917011261,,,-1610.0,1503.0,-35.0,0.0,-20.0,22.0
18.19735622406006,,,-1735.0,967.0,-182.0,0.0,-20.0,28.0
18.21795630455017,,,-1941.0,596.0,-156.0,2.0,-18.0,32.0
18.238422632217407,,,-2043.0,477.0,23.0,11.0,-7.0,33.0
18.25888705253601,,,-1720.0,404.0,84.0,15.0,-1.0,35.0
18.27930474281311,,,-861.0,114.0,206.0,20.0,1.0,33.0
18.299872159957886,,,-623.0,22.0,162.0,20.0,-1.0,27.0
18.320265531539917,,,-562.0,-33.0,43.0,19.0,-2.0,16.0
18.340826272964478,,,-749.0,-63.0,-207.0,16.0,3.0,2.0
18.361178159713745,,,-843.0,-11.0,-170.0,16.0,6.0,0.0
18.38170862197876,,,-910.0,106.0,-77.0,16.0,9.0,1.0
18.402234315872192,,,-812.0,320.0,258.0,16.0,15.0,8.0
18.42278742790222,,,-641.0,380.0,403.0,15.0,18.0,14.0
18.443639516830444,,,-416.0,396.0,560.0,15.0,22.0,20.0
18.463972330093384,,,325.0,308.0,895.0,17.0,28.0,21.0
18.484569311141968,,,762.0,403.0,882.0,17.0,30.0,17.0
18.50516963005066,,,1506.0,880.0,493.0,17.0,29.0,4.0
18.525471448898315,,,1814.0,1028.0,318.0,14.0,24.0,-2.0
18.54606866836548,,,1975.0,1086.0,213.0,9.0,19.0,-8.0
18.566652536392212,,,1695.0,1135.0,240.0,-1.0,12.0,-22.0
18.586854934692383,,,1300.0,1247.0,435.0,-6.0,11.0,-25.0
18.60735845565796,,,796.0,1456.0,811.0,-9.0,10.0,-24.0
18.627887725830078,,,-57.0,1822.0,1620.0,-10.0,9.0,-6.0
18.648245334625244,,,-286.0,1870.0,1835.0,-8.0,8.0,3.0
18.668811082839966,,,-311.0,1815.0,1918.0,-7.0,9.0,8.0
18.68928813934326,,,50.0,1701.0,1557.0,-3.0,9.0,7.0
18.709670305252075,,,219.0,1643.0,1199.0,-2.0,8.0,8.0
18.730389833450317,,,304.0,1552.0,864.0,-1.0,5.0,10.0
18.750840425491333,,,228.0,1318.0,225.0,0.0,-2.0,11.0
18.77118158340454,,,141.0,1179.0,-126.0,1.0,-4.0,10.0
18.791818380355835,,,-128.0,789.0,-384.0,2.0,-5.0,11.0
18.812304735183716,,,-371.0,602.0,-167.0,0.0,-4.0,12.0
18.83259153366089,,,-671.0,465.0,92.0,-1.0,-4.0,15.0
18.8534836769104,,,-1112.0,368.0,428.0,2.0,0.0,25.0
18.87359380722046,,,-1271.0,371.0,593.0,5.0,3.0,30.0
18.894218683242798,,,-1261.0,390.0,748.0,8.0,7.0,32.0
18.91465997695923,,,-646.0,471.0,833.0,13.0,15.0,28.0
18.93504285812378,,,-220.0,435.0,903.0,15.0,17.0,23.0
18.955326318740845,,,-44.0,424.0,1047.0,15.0,18.0,16.0
18.976089239120483,,,-316.0,883.0,1103.0,15.0,18.0,2.0
18.99237847328186,,,-558.0,1144.0,786.0,16.0,19.0,2.0
19.01268982887268,,,-719.0,1314.0,452.0,17.0,21.0,3.0
19.03307604789734,,,-961.0,1245.0,351.0,14.0,26.0,6.0
19.053646564483643,,,-1143.0,1264.0,433.0,14.0,27.0,7.0
19.074132204055786,,,-1228.0,1500.0,409.0,15.0,28.0,7.0
19.09464430809021,,,-1126.0,1526.0,296.0,15.0,28.0,7.0
19.11501693725586,,,-999.0,1512.0,187.0,13.0,28.0,5.0
19.13556456565857,,,-1017.0,1658.0,218.0,13.0,29.0,2.0
19.156094312667847,,,-1022.0,1741.0,284.0,13.0,31.0,5.0
19.17655849456787,,,-880.0,1761.0,287.0,13.0,31.0,11.0
19.19692826271057,,,-491.0,1627.0,4.0,12.0,30.0,20.0
19.221604824066162,,,-304.0,1509.0,-150.0,10.0,30.0,18.0
19.241965293884277,,,38.0,1426.0,-36.0,3.0,26.0,8.0
19.26254940032959,,,46.0,1507.0,70.0,0.0,24.0,7.0
19.282862901687622,,,-52.0,1647.0,183.0,-1.0,24.0,10.0
19.30351996421814,,,32.0,1651.0,357.0,1.0,23.0,21.0
19.32392406463623,,,379.0,1268.0,444.0,1.0,21.0,19.0
19.344276905059814,,,665.0,830.0,499.0,-3.0,18.0,9.0
19.364972829818726,,,282.0,947.0,716.0,-4.0,12.0,-9.0
19.385716915130615,,,122.0,940.0,1138.0,-4.0,9.0,-9.0
19.405911922454834,,,-670.0,821.0,1700.0,-3.0,11.0,-1.0
19.426555156707764,,,-1105.0,1002.0,1634.0,0.0,12.0,4.0
19.447007417678833,,,-1277.0,1195.0,1382.0,3.0,11.0,13.0
19.467509031295776,,,-916.0,999.0,512.0,6.0,10.0,22.0
19.48795986175537,,,-363.0,801.0,357.0,6.0,9.0,15.0
19.508570194244385,,,368.0,670.0,589.0,4.0,6.0,5.0
19.528911352157593,,,1272.0,1186.0,926.0,4.0,9.0,-4.0
19.54948377609253,,,1613.0,2021.0,668.0,7.0,12.0,-4.0
19.57010841369629,,,1915.0,2937.0,196.0,8.0,12.0,-6.0
19.590431928634644,,,2223.0,3620.0,-408.0,2.0,-2.0,-12.0
19.61097264289856,,,2050.0,3069.0,-332.0,-2.0,-12.0,-15.0
19.63145637512207,,,1660.0,2289.0,-208.0,-2.0,-17.0,-19.0
19.651824235916138,,,1116.0,1248.0,-107.0,5.0,-18.0,-27.0
19.672357082366943,,,955.0,1164.0,-38.0,7.0,-16.0,-27.0
19.692503452301025,,,337.0,1533.0,188.0,11.0,-18.0,-20.0
19.70877742767334,,,-127.0,1518.0,179.0,11.0,-22.0,-14.0
19.7293119430542,,,-723.0,1218.0,171.0,10.0,-24.0,-11.0
19.749813079833984,,,-2002.0,343.0,588.0,8.0,-20.0,-12.0
19.770339727401733,,,-2273.0,62.0,818.0,10.0,-16.0,-11.0
19.790780544281006,,,-2213.0,-247.0,1054.0,13.0,-11.0,-7.0
19.81136441230774,,,-1805.0,-735.0,1323.0,23.0,-2.0,0.0
19.831820487976074,,,-1678.0,-639.0,1199.0,27.0,1.0,2.0
19.8522891998291,,,-1558.0,-467.0,903.0,29.0,2.0,4.0
19.872820615768433,,,-1292.0,-475.0,463.0,30.0,4.0,6.0
19.89318823814392,,,-960.0,-691.0,16.0,27.0,7.0,7.0
19.913689613342285,,,-412.0,-1138.0,-353.0,22.0,11.0,0.0
19.93418788909912,,,-333.0,-1109.0,-303.0,19.0,12.0,-9.0
19.954554080963135,,,-337.0,-875.0,-221.0,18.0,13.0,-15.0
19.97517442703247,,,-326.0,-280.0,-126.0,16.0,17.0,-11.0
19.99555730819702,,,-257.0,-67.0,-69.0,14.0,18.0,-6.0
20.01625108718872,,,-139.0,19.0,-35.0,12.0,18.0,-3.0
20.03677248954773,,,44.0,-69.0,-110.0,6.0,17.0,-5.0
20.057385206222534,,,60.0,-45.0,-146.0,3.0,17.0,-9.0
20.077866315841675,,,20.0,89.0,-125.0,1.0,17.0,-12.0
20.09841275215149,,,-70.0,506.0,25.0,-1.0,16.0,-10.0
20.118722200393677,,,-46.0,625.0,102.0,-4.0,16.0,-8.0
20.139384269714355,,,-16.0,666.0,205.0,-6.0,15.0,-8.0
20.159754276275635,,,-112.0,779.0,379.0,-7.0,13.0,-10.0
20.1803560256958,,,-153.0,843.0,443.0,-6.0,13.0,-12.0
20.200671195983887,,,-153.0,958.0,393.0,-5.0,12.0,-9.0
20.221282720565796,,,-122.0,982.0,290.0,-5.0,11.0,-9.0
20.241608142852783,,,-66.0,968.0,211.0,-5.0,11.0,-9.0
20.262303113937378,,,-117.0,984.0,149.0,-4.0,10.0,-8.0
20.286791801452637,,,-162.0,980.0,97.0,-4.0,9.0,-6.0
20.30730390548706,,,-160.0,923.0,-1.0,-4.0,8.0,-5.0
20.327741622924805,,,-166.0,844.0,-54.0,-5.0,7.0,-5.0
20.348344802856445,,,-206.0,785.0,9.0,-5.0,7.0,-5.0
20.368576765060425,,,-247.0,785.0,227.0,-4.0,5.0,-4.0
20.385159254074097,,,-243.0,836.0,270.0,-4.0,5.0,-1.0
20.405482292175293,,,-222.0,916.0,322.0,-3.0,5.0,1.0
20.425830125808716,,,-65.0,970.0,350.0,-1.0,3.0,4.0
20.446399688720703,,,-8.0,925.0,260.0,-1.0,1.0,4.0
20.467053651809692,,,-1.0,861.0,132.0,-2.0,0.0,3.0
20.487393617630005,,,25.0,809.0,-19.0,-2.0,-2.0,1.0
20.50802969932556,,,40.0,802.0,20.0,-2.0,-2.0,2.0
20.528501510620117,,,92.0,748.0,113.0,-2.0,-4.0,3.0
20.548879623413086,,,74.0,646.0,275.0,-3.0,-6.0,4.0
20.56929326057434,,,39.0,677.0,262.0,-2.0,-7.0,5.0
20.58985948562622,,,85.0,698.0,109.0,-2.0,-7.0,6.0
20.61012864112854,,,124.0,604.0,79.0,-3.0,-8.0,7.0
20.63068675994873,,,126.0,481.0,91.0,-3.0,-9.0,6.0
20.651273488998413,,,60.0,424.0,131.0,-3.0,-10.0,1.0
20.671660900115967,,,13.0,511.0,124.0,-2.0,-11.0,1.0
20.692485570907593,,,-49.0,595.0,109.0,-3.0,-12.0,3.0
20.712741136550903,,,-178.0,507.0,291.0,-8.0,-14.0,5.0
20.733115434646606,,,-243.0,366.0,379.0,-9.0,-13.0,5.0
20.75369095802307,,,-280.0,283.0,466.0,-9.0,-13.0,4.0
20.774275541305542,,,-289.0,372.0,617.0,-8.0,-11.0,6.0
20.79464030265808,,,-230.0,506.0,595.0,-9.0,-12.0,8.0
20.814999103546143,,,-202.0,686.0,464.0,-9.0,-14.0,11.0
20.835654973983765,,,-226.0,677.0,445.0,-9.0,-14.0,11.0
20.856117248535156,,,-199.0,626.0,383.0,-9.0,-14.0,10.0
20.876630067825317,,,-51.0,575.0,264.0,-9.0,-13.0,10.0
20.89713478088379,,,47.0,607.0,313.0,-9.0,-14.0,9.0
20.917487621307373,,,97.0,611.0,434.0,-9.0,-14.0,8.0
20.937903881072998,,,192.0,519.0,641.0,-6.0,-15.0,6.0
20.958532333374023,,,270.0,533.0,553.0,-3.0,-16.0,8.0
20.97902798652649,,,382.0,534.0,337.0,0.0,-18.0,10.0
20.999452829360962,,,605.0,325.0,-205.0,4.0,-20.0,11.0
21.01990842819214,,,779.0,105.0,-378.0,5.0,-20.0,9.0
21.040321350097656,,,992.0,-121.0,-539.0,5.0,-21.0,6.0
21.060611963272095,,,991.0,-235.0,-606.0,4.0,-24.0,-3.0
21.081262350082397,,,823.0,-232.0,-413.0,3.0,-25.0,-7.0
21.101543188095093,,,503.0,-364.0,15.0,-1.0,-25.0,-10.0
21.122180223464966,,,204.0,-374.0,219.0,-4.0,-24.0,-10.0
21.142709016799927,,,-164.0,-262.0,412.0,-4.0,-23.0,-10.0
21.163142681121826,,,-439.0,-109.0,573.0,-2.0,-21.0,-6.0
21.183821439743042,,,-464.0,-61.0,675.0,1.0,-19.0,-2.0
21.204322814941406,,,-348.0,-105.0,681.0,3.0,-17.0,0.0
21.22482991218567,,,-66.0,-35.0,622.0,4.0,-13.0,-5.0
21.245022773742676,,,86.0,80.0,671.0,5.0,-12.0,-6.0
21.265578508377075,,,246.0,176.0,702.0,7.0,-12.0,-6.0
21.286019802093506,,,423.0,50.0,713.0,8.0,-12.0,-6.0
21.306625843048096,,,268.0,-9.0,684.0,7.0,-13.0,-9.0
21.326977729797363,,,-338.0,216.0,532.0,5.0,-13.0,-16.0
21.347493410110474,,,-601.0,348.0,540.0,6.0,-11.0,-15.0
21.36798596382141,,,-855.0,501.0,608.0,8.0,-7.0,-8.0
21.38859534263611,,,-1072.0,1063.0,548.0,12.0,-2.0,9.0
21.408870458602905,,,-951.0,1174.0,465.0,13.0,0.0,16.0
21.429551124572754,,,-659.0,1077.0,458.0,13.0,3.0,17.0
21.44979190826416,,,55.0,1432.0,201.0,20.0,14.0,12.0
21.46644163131714,,,271.0,2078.0,-219.0,26.0,19.0,14.0
21.48690390586853,,,386.0,2669.0,-598.0,26.0,17.0,19.0
21.50715208053589,,,167.0,2493.0,-607.0,11.0,15.0,16.0
21.527669668197632,,,-41.0,2051.0,-317.0,6.0,18.0,9.0
21.54822540283203,,,-356.0,1879.0,61.0,5.0,23.0,2.0
21.568690538406372,,,-824.0,2524.0,929.0,4.0,26.0,13.0
21.58916664123535,,,-743.0,2779.0,1121.0,2.0,28.0,23.0
21.60956311225891,,,98.0,2517.0,1697.0,-5.0,31.0,35.0
21.630167722702026,,,673.0,2396.0,2151.0,-10.0,31.0,33.0
21.650848150253296,,,1193.0,2307.0,2672.0,-18.0,29.0,29.0
21.67102313041687,,,1728.0,1514.0,4339.0,-31.0,33.0,20.0
21.69153332710266,,,1706.0,950.0,5460.0,-33.0,29.0,22.0
21.711975812911987,,,1231.0,180.0,6353.0,-35.0,22.0,31.0
21.736496448516846,,,-521.0,-1922.0,6833.0,-25.0,11.0,40.0
21.757033109664917,,,-1336.0,-3036.0,6091.0,-19.0,4.0,34.0
21.77759861946106,,,-2238.0,-4387.0,3976.0,-22.0,-9.0,20.0
21.79800009727478,,,-2475.0,-4364.0,3187.0,-17.0,-13.0,15.0
21.818446159362793,,,-2389.0,-4270.0,2511.0,-9.0,-16.0,22.0
21.838966131210327,,,-1738.0,-3789.0,522.0,-2.0,-16.0,37.0
21.859285831451416,,,-1522.0,-3297.0,-712.0,-3.0,-16.0,31.0
21.879987239837646,,,-1259.0,-2881.0,-1792.0,-8.0,-16.0,16.0
21.900259494781494,,,-1067.0,-2253.0,-3200.0,-22.0,-15.0,-11.0
21.920801877975464,,,-1587.0,-1634.0,-3620.0,-29.0,-13.0,-18.0
21.94119167327881,,,-2528.0,645.0,-3980.0,-26.0,-5.0,-13.0
21.961751222610474,,,-2057.0,1654.0,-4359.0,-24.0,-2.0,3.0
21.98215651512146,,,-1342.0,2273.0,-4792.0,-23.0,4.0,26.0
22.0027277469635,,,220.0,2564.0,-4299.0,-21.0,10.0,57.0
22.023470640182495,,,1033.0,2577.0,-3349.0,-22.0,9.0,51.0
22.04393219947815,,,1647.0,2640.0,-2266.0,-22.0,7.0,31.0
22.06452965736389,,,1846.0,2944.0,437.0,-10.0,5.0,-1.0
22.084741830825806,,,1763.0,3094.0,1912.0,-4.0,2.0,-7.0
22.105095863342285,,,1911.0,3200.0,3215.0,-3.0,-2.0,-9.0
22.12564468383789,,,2180.0,2697.0,5257.0,-7.0,-1.0,-2.0
22.146058082580566,,,2123.0,2036.0,6171.0,-9.0,0.0,2.0
22.166677474975586,,,1862.0,1445.0,6782.0,-12.0,-1.0,6.0
22.18292808532715,,,995.0,1261.0,6606.0,-17.0,-5.0,14.0
22.203521251678467,,,720.0,1164.0,6166.0,-17.0,-7.0,20.0
22.223953247070312,,,-163.0,-446.0,5450.0,-12.0,-7.0,26.0
22.24444055557251,,,-1479.0,-1872.0,5394.0,-12.0,-8.0,23.0
22.26509737968445,,,-3319.0,-2608.0,5096.0,-11.0,-17.0,5.0
22.285322189331055,,,-4894.0,-3058.0,3242.0,10.0,-30.0,4.0
22.305888414382935,,,-4037.0,-3404.0,1927.0,19.0,-33.0,18.0
22.326552867889404,,,-2652.0,-3421.0,470.0,19.0,-33.0,10.0
22.346872329711914,,,-1002.0,-2595.0,-1755.0,2.0,-31.0,-26.0
22.367262601852417,,,-969.0,-1711.0,-2432.0,-3.0,-33.0,-30.0
22.388127326965332,,,-752.0,-702.0,-3039.0,-5.0,-34.0,-21.0
22.408413887023926,,,730.0,1031.0,-4455.0,0.0,-24.0,16.0
22.428900718688965,,,2036.0,1506.0,-5084.0,7.0,-19.0,26.0
22.449378728866577,,,4683.0,1321.0,-6165.0,-1.0,-15.0,-12.0
22.469775199890137,,,4876.0,887.0,-6282.0,-17.0,-18.0,-53.0
22.49016809463501,,,4041.0,480.0,-5677.0,-34.0,-23.0,-91.0
22.510735750198364,,,1007.0,-516.0,-1682.0,-44.0,-33.0,-127.0
22.53129005432129,,,-470.0,-1319.0,1036.0,-40.0,-27.0,-111.0
22.551687002182007,,,-1640.0,-2074.0,3657.0,-34.0,-18.0,-86.0
22.5722815990448,,,-3033.0,-2590.0,6299.0,-41.0,-11.0,-70.0
22.59275460243225,,,-3732.0,-2265.0,6602.0,-48.0,-13.0,-72.0
22.61336040496826,,,-4451.0,-2011.0,6888.0,-50.0,-17.0,-75.0
22.633758306503296,,,-5441.0,-1333.0,6551.0,-31.0,-14.0,-34.0
22.65406322479248,,,-5180.0,-1024.0,5528.0,-18.0,-11.0,-10.0
22.674696445465088,,,-4517.0,-861.0,3964.0,-10.0,-8.0,9.0
22.695064783096313,,,-2797.0,-1064.0,587.0,-9.0,-5.0,15.0
22.715579748153687,,,-2125.0,-1420.0,-488.0,-12.0,-5.0,5.0
22.73598051071167,,,-1553.0,-1478.0,-1264.0,-13.0,-4.0,-16.0
22.756677865982056,,,-1477.0,-934.0,-1261.0,-9.0,-5.0,-26.0
22.776837587356567,,,-1438.0,-324.0,-1111.0,-5.0,-8.0,-29.0
22.797584533691406,,,-892.0,87.0,-793.0,0.0,-3.0,-21.0
22.817930459976196,,,-517.0,28.0,-632.0,2.0,0.0,-17.0
22.83854579925537,,,-219.0,57.0,-497.0,4.0,0.0,-12.0
22.8588547706604,,,486.0,-84.0,-314.0,0.0,-3.0,-11.0
22.879382848739624,,,788.0,-323.0,-153.0,-4.0,-3.0,-8.0
22.89967393875122,,,1015.0,-494.0,259.0,-4.0,0.0,-4.0
22.920341968536377,,,1438.0,-487.0,1541.0,-3.0,-1.0,-2.0
22.940715312957764,,,1444.0,-319.0,1827.0,-3.0,-1.0,-2.0
22.96116590499878,,,1573.0,214.0,1605.0,-3.0,-1.0,-10.0
22.981587648391724,,,1828.0,407.0,1562.0,-3.0,-2.0,-14.0
23.002350568771362,,,2107.0,384.0,1639.0,-5.0,-3.0,-16.0
23.022645473480225,,,2207.0,-38.0,1964.0,-13.0,-5.0,-14.0
23.043339014053345,,,2042.0,-141.0,2127.0,-15.0,-6.0,-13.0
23.063759088516235,,,1835.0,-176.0,2235.0,-13.0,-6.0,-14.0
23.084291696548462,,,1329.0,-501.0,2702.0,-6.0,-5.0,-13.0
23.104633569717407,,,1031.0,-852.0,3172.0,-5.0,-7.0,-13.0
23.125234127044678,,,685.0,-1242.0,3553.0,-6.0,-12.0,-14.0
23.14560842514038,,,-183.0,-1705.0,3430.0,-4.0,-18.0,-13.0
23.166210412979126,,,-535.0,-1639.0,2976.0,1.0,-17.0,-12.0
23.186513662338257,,,-712.0,-1477.0,2372.0,6.0,-16.0,-10.0
23.20708918571472,,,-821.0,-1297.0,819.0,14.0,-13.0,6.0
23.227456092834473,,,-884.0,-1275.0,-16.0,14.0,-11.0,13.0
23.248117208480835,,,-1209.0,-1048.0,-1654.0,5.0,-8.0,19.0
23.26446557044983,,,-1346.0,-661.0,-2359.0,2.0,-5.0,18.0
23.284846544265747,,,-1202.0,-75.0,-2917.0,-1.0,-1.0,15.0
23.305352687835693,,,-657.0,1447.0,-3611.0,-4.0,3.0,14.0
23.32577157020569,,,-412.0,2012.0,-3821.0,-7.0,3.0,17.0
23.346297025680542,,,-7.0,2159.0,-3949.0,-12.0,1.0,24.0
23.366727352142334,,,1613.0,1222.0,-2963.0,-17.0,0.0,29.0
23.387061834335327,,,2566.0,505.0,-1672.0,-12.0,4.0,23.0
23.407865047454834,,,3187.0,-174.0,-186.0,-5.0,12.0,16.0
23.428288459777832,,,4026.0,-781.0,2199.0,4.0,21.0,-2.0
23.448771476745605,,,4550.0,-560.0,2543.0,0.0,17.0,-16.0
23.469144582748413,,,4472.0,438.0,2169.0,-13.0,0.0,-38.0
23.489470958709717,,,3828.0,516.0,2308.0,-16.0,-4.0,-41.0
23.510137796401978,,,3377.0,70.0,2827.0,-18.0,-3.0,-42.0
23.530677556991577,,,2257.0,-83.0,3989.0,-24.0,6.0,-32.0
23.55106234550476,,,1838.0,565.0,4547.0,-19.0,6.0,-29.0
23.57165813446045,,,1785.0,865.0,5069.0,-15.0,5.0,-27.0
23.592017650604248,,,2120.0,236.0,5422.0,-14.0,8.0,-15.0
23.612456560134888,,,2029.0,-237.0,5350.0,-14.0,7.0,-10.0
23.63302993774414,,,1677.0,-559.0,5174.0,-9.0,2.0,-9.0
23.653390645980835,,,1399.0,230.0,4237.0,6.0,-17.0,-16.0
23.67407774925232,,,1519.0,4.0,3869.0,9.0,-25.0,-17.0
23.69446635246277,,,1359.0,-815.0,3675.0,10.0,-31.0,-13.0
23.714928150177002,,,212.0,-1886.0,2615.0,17.0,-32.0,-9.0
23.735347509384155,,,-361.0,-1839.0,1748.0,22.0,-31.0,-17.0
23.755884885787964,,,-1454.0,-1711.0,412.0,25.0,-33.0,-32.0
23.776426315307617,,,-1958.0,-2126.0,162.0,22.0,-34.0,-32.0
23.796776294708252,,,-2468.0,-2613.0,-30.0,19.0,-33.0,-28.0
23.817115545272827,,,-3230.0,-2803.0,-739.0,13.0,-24.0,-13.0
23.83793616294861,,,-3241.0,-2537.0,-1122.0,8.0,-21.0,-8.0
23.858366012573242,,,-3086.0,-2080.0,-1487.0,3.0,-17.0,-5.0
23.87877655029297,,,-2468.0,-1093.0,-2078.0,-5.0,-9.0,2.0
23.899043321609497,,,-2060.0,-485.0,-2370.0,-7.0,-5.0,8.0
23.919668674468994,,,-1463.0,286.0,-2663.0,-7.0,-4.0,10.0
23.940138578414917,,,354.0,1439.0,-3161.0,-2.0,-3.0,15.0
23.960733890533447,,,1360.0,1249.0,-3153.0,-3.0,-1.0,21.0
23.98105263710022,,,2912.0,-788.0,-1780.0,-8.0,5.0,24.0
24.001588106155396,,,3289.0,-1848.0,-713.0,-8.0,9.0,16.0
24.02214503288269,,,3456.0,-2342.0,185.0,-5.0,12.0,-1.0
24.042701244354248,,,3864.0,-1509.0,830.0,-6.0,7.0,-36.0
24.063032150268555,,,3724.0,-1052.0,954.0,-9.0,1.0,-43.0
24.08368468284607,,,2998.0,-1000.0,1063.0,-9.0,-3.0,-47.0
24.103957176208496,,,703.0,-1788.0,1379.0,-8.0,-16.0,-57.0
24.124667644500732,,,-298.0,-2344.0,1648.0,-10.0,-26.0,-60.0
24.145007848739624,,,-1100.0,-2616.0,1840.0,-11.0,-31.0,-60.0
24.165597915649414,,,-2158.0,-2287.0,2149.0,-10.0,-27.0,-51.0
24.18600583076477,,,-2373.0,-1780.0,2171.0,-7.0,-26.0,-43.0
24.206549167633057,,,-2377.0,-1335.0,1985.0,-3.0,-26.0,-35.0
24.226964473724365,,,-2492.0,-1274.0,1412.0,1.0,-29.0,-21.0
24.247528314590454,,,-2785.0,-1412.0,1296.0,2.0,-28.0,-19.0
24.267906427383423,,,-2813.0,-1631.0,970.0,7.0,-18.0,-24.0
24.288519859313965,,,-2444.0,-1775.0,773.0,6.0,-14.0,-32.0
24.308913707733154,,,-2065.0,-1804.0,695.0,2.0,-12.0,-40.0
24.329315900802612,,,-1518.0,-1326.0,1059.0,-7.0,-11.0,-41.0
24.349886655807495,,,-1250.0,-1092.0,1267.0,-7.0,-12.0,-32.0
24.37029266357422,,,-559.0,-913.0,1049.0,-2.0,-4.0,-24.0
24.390723943710327,,,-223.0,-889.0,809.0,-1.0,1.0,-27.0
24.411192893981934,,,118.0,-842.0,686.0,-4.0,4.0,-34.0
24.43179440498352,,,838.0,-192.0,525.0,-9.0,4.0,-37.0
24.452221870422363,,,1390.0,471.0,343.0,-6.0,5.0,-32.0
24.47268581390381,,,2043.0,1032.0,130.0,-1.0,8.0,-26.0
24.493077039718628,,,3051.0,919.0,214.0,4.0,13.0,-9.0
24.513599157333374,,,3155.0,596.0,292.0,5.0,14.0,4.0
24.534067630767822,,,3271.0,365.0,447.0,7.0,14.0,14.0
24.554440021514893,,,4867.0,-144.0,1419.0,10.0,-4.0,13.0
24.575000286102295,,,5594.0,-603.0,1739.0,6.0,-16.0,9.0
24.595665216445923,,,5655.0,-1066.0,1772.0,0.0,-20.0,1.0
24.615979433059692,,,4409.0,-2232.0,2346.0,-14.0,-18.0,-18.0
24.63640332221985,,,3578.0,-2700.0,3009.0,-23.0,-16.0,-25.0
24.656954765319824,,,1930.0,-2011.0,4633.0,-28.0,-7.0,-25.0
24.677360773086548,,,1507.0,-1191.0,5309.0,-21.0,-7.0,-11.0
24.69787049293518,,,1191.0,-610.0,5414.0,-11.0,-11.0,6.0
24.718437910079956,,,-182.0,-1311.0,4647.0,1.0,-19.0,19.0
24.73892879486084,,,-1092.0,-1736.0,3855.0,5.0,-21.0,17.0
24.759498357772827,,,-1809.0,-1897.0,2839.0,9.0,-19.0,14.0
24.779949188232422,,,-2206.0,-2710.0,1218.0,21.0,-15.0,21.0
24.800414562225342,,,-2137.0,-3542.0,668.0,24.0,-15.0,25.0
24.82097315788269,,,-2066.0,-4279.0,85.0,20.0,-14.0,19.0
24.841280221939087,,,-1839.0,-4706.0,-911.0,-6.0,-16.0,-24.0
24.861923217773438,,,-1695.0,-4160.0,-1173.0,-20.0,-21.0,-45.0
24.882378339767456,,,-1360.0,-2030.0,-1514.0,-30.0,-26.0,-52.0
24.902782201766968,,,-1197.0,-1040.0,-1732.0,-29.0,-22.0,-44.0
24.923391342163086,,,-1059.0,-319.0,-2021.0,-26.0,-16.0,-32.0
24.943618774414062,,,-814.0,60.0,-2728.0,-19.0,-2.0,-16.0
24.964311361312866,,,-560.0,-190.0,-3062.0,-16.0,1.0,-17.0
24.9846453666687,,,-231.0,-623.0,-3207.0,-16.0,3.0,-22.0
25.005234003067017,,,121.0,-1586.0,-2550.0,-19.0,0.0,-41.0
25.025567054748535,,,0.0,-2049.0,-1834.0,-23.0,-2.0,-50.0
25.046275854110718,,,-316.0,-2374.0,-1053.0,-25.0,-3.0,-58.0
25.06234121322632,,,-916.0,-1546.0,68.0,-22.0,-3.0,-73.0
25.083091259002686,,,-800.0,-562.0,445.0,-14.0,-3.0,-71.0
25.10329294204712,,,-605.0,113.0,800.0,-6.0,-4.0,-62.0
25.12385582923889,,,-908.0,257.0,1140.0,0.0,2.0,-30.0
25.144399404525757,,,-1078.0,142.0,1369.0,4.0,2.0,-16.0
25.164823055267334,,,-950.0,-117.0,1678.0,13.0,-7.0,3.0
25.185192108154297,,,-917.0,-281.0,1309.0,15.0,-5.0,8.0
25.20578360557556,,,-842.0,-506.0,831.0,15.0,-1.0,8.0
25.22609543800354,,,-562.0,-1173.0,499.0,15.0,5.0,-1.0
25.24669861793518,,,-457.0,-1517.0,607.0,15.0,8.0,-6.0
25.267168283462524,,,-353.0,-1765.0,701.0,13.0,11.0,-9.0
25.28771209716797,,,91.0,-1715.0,638.0,10.0,15.0,-12.0
25.307968139648438,,,356.0,-1520.0,525.0,10.0,16.0,-12.0
25.328397274017334,,,522.0,-1491.0,483.0,9.0,17.0,-11.0
25.3488826751709,,,526.0,-1706.0,595.0,8.0,17.0,-8.0
25.369621992111206,,,513.0,-1994.0,911.0,4.0,17.0,-6.0
25.389915466308594,,,961.0,-1914.0,1549.0,3.0,14.0,-3.0
25.410560369491577,,,1429.0,-1623.0,1667.0,5.0,11.0,0.0
25.430992126464844,,,1783.0,-1324.0,1596.0,7.0,8.0,4.0
25.45154595375061,,,1878.0,-1229.0,1187.0,10.0,4.0,1.0
25.47198796272278,,,1748.0,-1396.0,1046.0,10.0,1.0,-6.0
25.49272632598877,,,1586.0,-1525.0,963.0,11.0,-3.0,-11.0
25.513056755065918,,,1315.0,-1222.0,825.0,11.0,-5.0,-11.0
25.533647060394287,,,1214.0,-1027.0,776.0,12.0,-5.0,-8.0
25.554054260253906,,,1096.0,-924.0,662.0,12.0,-4.0,-4.0
25.574515342712402,,,777.0,-1036.0,352.0,11.0,-3.0,-1.0
25.594852447509766,,,640.0,-1088.0,313.0,10.0,-4.0,-2.0
25.615464687347412,,,509.0,-1077.0,343.0,10.0,-4.0,-3.0
25.63591742515564,,,270.0,-946.0,493.0,9.0,-2.0,-1.0
25.656452417373657,,,159.0,-738.0,626.0,11.0,-1.0,2.0
25.676836490631104,,,-19.0,227.0,1176.0,19.0,1.0,12.0
25.697239637374878,,,-45.0,670.0,1334.0,22.0,2.0,21.0
25.71766233444214,,,-153.0,876.0,1325.0,23.0,3.0,32.0
25.73830270767212,,,-521.0,1034.0,1327.0,22.0,5.0,43.0
25.758766651153564,,,-869.0,1256.0,1498.0,26.0,6.0,51.0
25.77930450439453,,,-984.0,1356.0,1683.0,30.0,6.0,52.0
25.799800634384155,,,-698.0,1120.0,1661.0,30.0,4.0,52.0
25.82019829750061,,,-459.0,1204.0,1757.0,30.0,5.0,60.0
25.840738773345947,,,-36.0,1269.0,1895.0,32.0,7.0,72.0
25.8611421585083,,,1115.0,1271.0,2050.0,35.0,6.0,97.0
25.881645679473877,,,1617.0,1172.0,2080.0,35.0,2.0,106.0
25.90226650238037,,,2608.0,1227.0,2251.0,34.0,-9.0,110.0
25.922584772109985,,,3165.0,1182.0,2445.0,32.0,-14.0,110.0
25.943150520324707,,,3569.0,1011.0,2823.0,29.0,-20.0,109.0
25.963465929031372,,,3792.0,1133.0,4085.0,25.0,-39.0,121.0
25.98396944999695,,,3730.0,1532.0,4602.0,25.0,-50.0,138.0
26.00436305999756,,,3447.0,1904.0,4835.0,23.0,-61.0,156.0
26.02497363090515,,,2210.0,1240.0,4602.0,13.0,-73.0,175.0
26.045408964157104,,,1420.0,411.0,4069.0,5.0,-71.0,177.0
26.06587815284729,,,909.0,-245.0,3782.0,0.0,-67.0,167.0
26.086397171020508,,,467.0,-876.0,3966.0,-7.0,-81.0,144.0
26.106828451156616,,,-34.0,-1016.0,3844.0,-10.0,-88.0,139.0
26.127445697784424,,,-847.0,-1202.0,3227.0,-15.0,-87.0,136.0
26.143721342086792,,,-2335.0,-2023.0,2511.0,-32.0,-76.0,107.0
26.164039611816406,,,-3172.0,-1936.0,2343.0,-38.0,-76.0,87.0
26.1846821308136,,,-5498.0,-1125.0,2020.0,-36.0,-73.0,72.0
26.205169677734375,,,-6413.0,-1317.0,1772.0,-32.0,-67.0,52.0
26.225549936294556,,,-6597.0,-1454.0,1448.0,-27.0,-59.0,32.0
26.24617099761963,,,-5852.0,-952.0,1199.0,-26.0,-48.0,27.0
26.2666335105896,,,-5952.0,-782.0,1484.0,-25.0,-44.0,23.0
26.28709077835083,,,-6262.0,-921.0,1657.0,-24.0,-42.0,12.0
26.307461977005005,,,-5822.0,-471.0,759.0,-16.0,-24.0,-13.0
26.3280508518219,,,-4922.0,-564.0,681.0,-16.0,-19.0,-20.0
26.34857153892517,,,-4160.0,-819.0,889.0,-22.0,-18.0,-23.0
26.36884641647339,,,-4242.0,-282.0,1333.0,-19.0,-15.0,-32.0
26.38941979408264,,,-3923.0,32.0,1439.0,-18.0,-15.0,-25.0
26.409806966781616,,,-2914.0,-233.0,1135.0,-28.0,-8.0,-9.0
26.43032741546631,,,-2976.0,-437.0,1495.0,-28.0,-8.0,-17.0
26.45079731941223,,,-3358.0,-464.0,1825.0,-24.0,-8.0,-27.0
26.471140384674072,,,-3684.0,-217.0,1909.0,-18.0,-7.0,-24.0
26.491724491119385,,,-3688.0,39.0,1809.0,-14.0,-6.0,-18.0
26.512168645858765,,,-3510.0,166.0,1465.0,-13.0,-2.0,-13.0
26.532531261444092,,,-4278.0,329.0,914.0,-6.0,11.0,0.0
26.55295467376709,,,-4877.0,552.0,955.0,4.0,18.0,4.0
26.573516607284546,,,-5052.0,692.0,1222.0,14.0,25.0,8.0
26.593921899795532,,,-3912.0,272.0,2681.0,16.0,21.0,16.0
26.614426374435425,,,-3246.0,-73.0,3087.0,15.0,20.0,20.0
26.634936332702637,,,-2782.0,-503.0,3332.0,14.0,21.0,18.0
26.655330419540405,,,-2023.0,-1061.0,4226.0,10.0,18.0,-3.0
26.675875902175903,,,-1624.0,-1164.0,4480.0,9.0,15.0,-6.0
26.696385383605957,,,-1627.0,-837.0,4431.0,5.0,6.0,3.0
26.716893434524536,,,-2019.0,-349.0,4442.0,7.0,2.0,12.0
26.7372407913208,,,-1967.0,52.0,4178.0,14.0,2.0,13.0
26.7618510723114,,,-184.0,-550.0,3992.0,7.0,-7.0,-5.0
26.782427310943604,,,256.0,-752.0,3935.0,-1.0,-11.0,-7.0
26.803194761276245,,,-869.0,-268.0,3647.0,1.0,-13.0,-13.0
26.823673009872437,,,-829.0,85.0,3490.0,1.0,-13.0,-9.0
26.844120979309082,,,-590.0,274.0,3229.0,1.0,-12.0,-13.0
26.860281944274902,,,-516.0,85.0,2840.0,-6.0,-7.0,-22.0
26.88084387779236,,,-691.0,90.0,2850.0,-6.0,-7.0,-29.0
26.90146803855896,,,-741.0,85.0,2809.0,-5.0,-7.0,-30.0
26.922026872634888,,,-911.0,322.0,2692.0,-4.0,-2.0,-19.0
26.942200422286987,,,-1115.0,734.0,3116.0,0.0,-7.0,-17.0
26.962682485580444,,,-1144.0,823.0,3314.0,2.0,-7.0,-14.0
26.983267545700073,,,-1178.0,325.0,3586.0,1.0,-4.0,-17.0
27.003650188446045,,,-1234.0,168.0,3329.0,2.0,-2.0,-14.0
27.024428844451904,,,-1311.0,225.0,3114.0,4.0,1.0,-12.0
27.044647216796875,,,-1412.0,463.0,3013.0,9.0,3.0,-3.0
27.065173149108887,,,-1210.0,333.0,3102.0,10.0,4.0,1.0
27.085747241973877,,,-653.0,-182.0,3445.0,5.0,6.0,1.0
27.10603380203247,,,-664.0,-229.0,3459.0,3.0,8.0,4.0
27.12651538848877,,,-785.0,-95.0,3656.0,5.0,5.0,-2.0
27.146952390670776,,,-860.0,262.0,3752.0,9.0,-1.0,-2.0
27.167794227600098,,,-733.0,100.0,3751.0,9.0,-2.0,-3.0
27.18832015991211,,,-366.0,-163.0,3773.0,5.0,-5.0,-6.0
27.208606004714966,,,-224.0,-390.0,3733.0,1.0,-6.0,-9.0
27.22909379005432,,,-320.0,-292.0,3670.0,1.0,-7.0,-10.0
27.249610424041748,,,-306.0,-170.0,3572.0,2.0,-7.0,-9.0
27.27005171775818,,,-237.0,-151.0,3211.0,-1.0,-7.0,-8.0
27.290705919265747,,,-399.0,-97.0,3133.0,-2.0,-4.0,-8.0
27.311310291290283,,,-534.0,23.0,3443.0,1.0,-1.0,1.0
27.331671237945557,,,-367.0,9.0,3550.0,1.0,-2.0,-1.0
27.352148056030273,,,-189.0,-56.0,3583.0,0.0,-4.0,-8.0
27.372690439224243,,,-59.0,-258.0,3399.0,-3.0,-6.0,-13.0
27.39292573928833,,,-226.0,-192.0,3302.0,-3.0,-5.0,-7.0
27.41337013244629,,,-411.0,-45.0,3259.0,-1.0,-5.0,-6.0
27.433980703353882,,,-571.0,201.0,2976.0,0.0,-2.0,-7.0
27.454463958740234,,,-593.0,175.0,3002.0,0.0,-2.0,-6.0
27.47485327720642,,,-493.0,88.0,3139.0,0.0,-3.0,-7.0
27.49542546272278,,,-217.0,-167.0,3271.0,-1.0,-2.0,-10.0
27.515926599502563,,,-295.0,-128.0,3240.0,-2.0,-1.0,-9.0
27.536420583724976,,,-380.0,-83.0,3256.0,-2.0,0.0,-6.0
27.556623697280884,,,-374.0,-92.0,3343.0,-2.0,0.0,1.0
27.57734727859497,,,-431.0,-39.0,3430.0,0.0,-1.0,1.0
27.597879648208618,,,-553.0,91.0,3529.0,3.0,1.0,-2.0
27.618375062942505,,,-445.0,-9.0,3492.0,2.0,0.0,-1.0
27.63871479034424,,,-398.0,-36.0,3393.0,2.0,0.0,1.0
27.659383058547974,,,-359.0,49.0,3377.0,3.0,0.0,0.0
27.679665565490723,,,-336.0,44.0,3354.0,3.0,0.0,-2.0
27.700323343276978,,,-338.0,-13.0,3352.0,3.0,0.0,-3.0
27.72056531906128,,,-329.0,39.0,3331.0,3.0,0.0,2.0
27.74110507965088,,,-306.0,27.0,3239.0,3.0,1.0,2.0
27.76143980026245,,,-332.0,-15.0,3166.0,3.0,2.0,1.0
27.782095909118652,,,-34.0,-199.0,3332.0,2.0,1.0,2.0
27.802430629730225,,,159.0,-299.0,3344.0,0.0,0.0,0.0
27.82315421104431,,,-35.0,-364.0,3423.0,-2.0,-2.0,-6.0
27.843608379364014,,,-183.0,-175.0,3376.0,-1.0,0.0,-4.0
27.86420702934265,,,-277.0,-59.0,3418.0,-1.0,-1.0,0.0
27.884533405303955,,,-365.0,7.0,3284.0,0.0,-2.0,0.0
27.90513038635254,,,-342.0,26.0,3122.0,2.0,0.0,-1.0
27.925549268722534,,,-272.0,10.0,3096.0,2.0,1.0,-1.0
27.941944122314453,,,-90.0,-181.0,3362.0,0.0,-1.0,0.0
27.962213039398193,,,93.0,-370.0,3555.0,-1.0,-4.0,-3.0
27.98288369178772,,,192.0,-476.0,3647.0,-3.0,-5.0,-8.0
28.003267288208008,,,-104.0,-329.0,3466.0,-3.0,-5.0,-10.0
28.023865699768066,,,-322.0,-145.0,3363.0,-2.0,-4.0,-6.0
28.044595956802368,,,-367.0,-67.0,3374.0,-2.0,-3.0,-3.0
28.064756393432617,,,-120.0,-199.0,3354.0,-2.0,-3.0,-3.0
28.085259675979614,,,-99.0,-219.0,3354.0,-3.0,-3.0,-6.0
28.105758666992188,,,-198.0,-51.0,3330.0,-3.0,-3.0,-4.0
28.126245260238647,,,-262.0,50.0,3388.0,-3.0,-2.0,1.0
28.146740674972534,,,-236.0,30.0,3409.0,-3.0,-3.0,2.0
28.1671941280365,,,-169.0,16.0,3250.0,-2.0,-1.0,-4.0
28.187760591506958,,,-213.0,108.0,3190.0,-1.0,0.0,-3.0
28.208277225494385,,,-278.0,134.0,3297.0,-1.0,0.0,1.0
28.2286376953125,,,7.0,-149.0,3498.0,-1.0,-3.0,-1.0
28.249160528182983,,,100.0,-229.0,3434.0,-2.0,-3.0,-5.0
28.269507884979248,,,41.0,-197.0,3369.0,-2.0,-3.0,-7.0
28.29023241996765,,,-224.0,18.0,3279.0,-1.0,-2.0,-1.0
28.310593128204346,,,-273.0,36.0,3205.0,-1.0,-1.0,2.0
28.331098794937134,,,-205.0,-23.0,3016.0,0.0,1.0,1.0
28.351442575454712,,,-210.0,31.0,2954.0,0.0,3.0,2.0
28.371910572052002,,,-233.0,98.0,3050.0,0.0,5.0,6.0
28.392382860183716,,,-10.0,-177.0,3472.0,-1.0,3.0,4.0
28.412668704986572,,,138.0,-353.0,3516.0,-2.0,1.0,1.0
28.433157205581665,,,137.0,-329.0,3465.0,-3.0,1.0,-2.0
28.45358180999756,,,-128.0,-101.0,3508.0,-2.0,0.0,0.0
28.474056005477905,,,-202.0,-58.0,3577.0,-2.0,0.0,3.0
28.49459195137024,,,-116.0,-97.0,3547.0,-2.0,-1.0,1.0
28.515055179595947,,,-89.0,-72.0,3440.0,-2.0,-1.0,-4.0
28.53575563430786,,,-177.0,10.0,3458.0,-2.0,-2.0,-4.0
28.556232929229736,,,-178.0,24.0,3448.0,-1.0,-2.0,-2.0
28.57669734954834,,,-45.0,-163.0,3314.0,-1.0,-1.0,-3.0
28.597153902053833,,,-81.0,-131.0,3249.0,-2.0,-1.0,-2.0
28.617650508880615,,,-116.0,-77.0,3226.0,-2.0,-1.0,0.0
28.63808822631836,,,-74.0,-121.0,3263.0,-1.0,0.0,-1.0
28.658613204956055,,,-12.0,-161.0,3277.0,-1.0,-1.0,-2.0
28.679067850112915,,,-27.0,-127.0,3241.0,-2.0,-1.0,0.0
28.699733018875122,,,-98.0,-59.0,3246.0,-2.0,-1.0,0.0
28.72017240524292,,,-102.0,-69.0,3389.0,-1.0,-1.0,-1.0
28.74058246612549,,,41.0,-140.0,3383.0,-1.0,-2.0,-3.0
28.76089358329773,,,41.0,-148.0,3368.0,0.0,-2.0,-5.0
28.78171944618225,,,-1.0,-112.0,3329.0,0.0,-2.0,-5.0
28.80206847190857,,,-66.0,-15.0,3327.0,-2.0,0.0,0.0
28.82267475128174,,,22.0,-108.0,3330.0,-2.0,0.0,-1.0
28.843038320541382,,,30.0,-138.0,3340.0,-3.0,-1.0,-5.0
28.863587141036987,,,-71.0,-69.0,3433.0,-3.0,-2.0,-5.0
28.88389301300049,,,-109.0,-31.0,3478.0,-2.0,-2.0,-3.0
28.904457807540894,,,-36.0,-102.0,3420.0,-2.0,-1.0,-2.0
28.924638032913208,,,42.0,-152.0,3346.0,-1.0,-1.0,-6.0
28.945314168930054,,,89.0,-233.0,3226.0,1.0,-1.0,-11.0
28.965712308883667,,,-274.0,-237.0,3399.0,-3.0,-4.0,-5.0
28.98626446723938,,,-330.0,-101.0,3443.0,-3.0,-6.0,0.0
29.006664276123047,,,-77.0,-135.0,3259.0,-2.0,-4.0,-1.0
29.023069620132446,,,157.0,-629.0,3124.0,-5.0,-3.0,-7.0
29.043434143066406,,,-15.0,-602.0,3164.0,-6.0,-2.0,-7.0
29.0639910697937,,,-127.0,-414.0,3197.0,-5.0,-2.0,-7.0
29.084455966949463,,,114.0,-379.0,3543.0,-4.0,-6.0,-3.0
29.10495948791504,,,512.0,-766.0,3856.0,-6.0,-11.0,-11.0
29.125694513320923,,,743.0,-1129.0,4233.0,-10.0,-20.0,-23.0
29.14595913887024,,,82.0,-949.0,4260.0,-9.0,-26.0,-21.0
29.166649341583252,,,-732.0,-471.0,3573.0,-4.0,-25.0,-15.0
29.18691110610962,,,-846.0,-378.0,2189.0,1.0,-23.0,-23.0
29.20747208595276,,,-806.0,-660.0,2188.0,-3.0,-21.0,-23.0
29.2281494140625,,,-739.0,-624.0,2162.0,-3.0,-16.0,-18.0
29.248440265655518,,,-1.0,-613.0,2206.0,1.0,-13.0,-22.0
29.273045539855957,,,411.0,-723.0,2327.0,2.0,-11.0,-26.0
29.29344153404236,,,525.0,-700.0,3059.0,-3.0,-13.0,-23.0
29.313987970352173,,,476.0,-520.0,3080.0,-1.0,-10.0,-25.0
29.33453679084778,,,551.0,-490.0,3137.0,4.0,-8.0,-33.0
29.355175495147705,,,806.0,-138.0,3607.0,2.0,-11.0,-24.0
29.375529766082764,,,587.0,-178.0,3888.0,-2.0,-8.0,-11.0
29.396047830581665,,,144.0,-151.0,3893.0,0.0,-6.0,-12.0
29.416398763656616,,,375.0,-227.0,3444.0,2.0,-9.0,-26.0
29.43695306777954,,,389.0,-263.0,3308.0,-1.0,-7.0,-25.0
29.45742964744568,,,446.0,-497.0,3461.0,0.0,-4.0,-16.0
29.477851390838623,,,534.0,-718.0,3438.0,0.0,-6.0,-17.0
29.49828314781189,,,515.0,-895.0,3427.0,1.0,-7.0,-23.0
29.51873230934143,,,208.0,-766.0,3403.0,3.0,-8.0,-21.0
29.53927493095398,,,120.0,-650.0,3251.0,3.0,-6.0,-17.0
29.55972981452942,,,125.0,-476.0,3030.0,5.0,-3.0,-16.0
29.580188989639282,,,96.0,-597.0,2657.0,5.0,1.0,-17.0
29.600792169570923,,,-130.0,-617.0,2774.0,4.0,0.0,-16.0
29.62119698524475,,,-197.0,-632.0,3102.0,6.0,-1.0,-8.0
29.641655921936035,,,179.0,-989.0,3497.0,7.0,-2.0,-3.0
29.66228723526001,,,204.0,-1009.0,3420.0,8.0,-2.0,-12.0
29.682617664337158,,,90.0,-956.0,3296.0,9.0,-2.0,-20.0
29.70316767692566,,,-296.0,-694.0,3194.0,10.0,2.0,-2.0
29.72361469268799,,,-258.0,-813.0,3110.0,9.0,2.0,3.0
29.7399320602417,,,-101.0,-830.0,2737.0,4.0,5.0,2.0
29.760546922683716,,,13.0,-842.0,2904.0,3.0,5.0,1.0
29.780977964401245,,,163.0,-914.0,3221.0,3.0,4.0,5.0
29.801420211791992,,,479.0,-1047.0,3283.0,4.0,1.0,3.0
29.821895837783813,,,668.0,-1348.0,3267.0,1.0,-2.0,-17.0
29.84225344657898,,,433.0,-1238.0,3471.0,0.0,-3.0,-16.0
29.863118410110474,,,230.0,-916.0,3524.0,2.0,-7.0,-5.0
29.883440256118774,,,521.0,-908.0,3034.0,2.0,-6.0,-10.0
29.90385627746582,,,600.0,-1032.0,2861.0,1.0,-5.0,-17.0
29.924224853515625,,,159.0,-748.0,2939.0,2.0,-2.0,-6.0
29.944777488708496,,,1.0,-465.0,2928.0,3.0,-1.0,2.0
29.96530795097351,,,286.0,-544.0,2952.0,6.0,1.0,1.0
29.985955953598022,,,478.0,-779.0,3240.0,6.0,-1.0,-2.0
30.006200075149536,,,679.0,-912.0,3401.0,5.0,-4.0,-5.0
30.026986837387085,,,740.0,-1069.0,3329.0,3.0,-7.0,-16.0
30.04713249206543,,,603.0,-748.0,3056.0,3.0,-5.0,-21.0
30.067702054977417,,,361.0,-287.0,2769.0,3.0,-1.0,-18.0
30.08822512626648,,,-214.0,70.0,2817.0,5.0,5.0,2.0
30.10862398147583,,,-111.0,-136.0,3034.0,7.0,4.0,1.0
30.12925434112549,,,204.0,-456.0,3167.0,8.0,2.0,-3.0
30.149443864822388,,,366.0,-576.0,3182.0,6.0,2.0,-6.0
30.17003846168518,,,241.0,-458.0,3074.0,6.0,2.0,-3.0
30.190491914749146,,,13.0,-255.0,2936.0,7.0,4.0,1.0
30.21097445487976,,,124.0,-344.0,3146.0,9.0,2.0,1.0
30.2312970161438,,,272.0,-511.0,3229.0,8.0,2.0,-4.0
30.25163698196411,,,-256.0,-696.0,3687.0,11.0,3.0,0.0
30.27229142189026,,,-291.0,-794.0,3589.0,19.0,2.0,-2.0
30.292730569839478,,,-161.0,-616.0,3187.0,13.0,-4.0,5.0
30.313228130340576,,,-590.0,-978.0,3027.0,8.0,0.0,10.0
30.333427667617798,,,-1221.0,-835.0,3053.0,15.0,1.0,8.0
30.35389471054077,,,-1141.0,-587.0,2741.0,23.0,-2.0,9.0
30.374398469924927,,,-1338.0,-442.0,2234.0,21.0,-1.0,37.0
30.394923448562622,,,-1804.0,-602.0,1993.0,24.0,4.0,41.0
30.415385961532593,,,-2029.0,-516.0,1478.0,24.0,15.0,39.0
30.435919761657715,,,-2525.0,-790.0,1773.0,30.0,24.0,36.0
30.456329822540283,,,-2455.0,-984.0,2295.0,29.0,26.0,50.0
30.476926803588867,,,-2075.0,-1453.0,2990.0,29.0,25.0,47.0
30.497271299362183,,,-620.0,-2849.0,2930.0,25.0,27.0,20.0
30.517884492874146,,,-303.0,-3106.0,2685.0,19.0,30.0,15.0
30.538328886032104,,,-1049.0,-2883.0,2452.0,12.0,32.0,28.0
30.558831930160522,,,-1171.0,-2860.0,2357.0,11.0,33.0,29.0
30.579264879226685,,,-1118.0,-2918.0,2169.0,12.0,38.0,12.0
30.59974694252014,,,-962.0,-3211.0,1840.0,5.0,56.0,-26.0
30.620253324508667,,,-1280.0,-3512.0,2271.0,0.0,58.0,-28.0
30.640754222869873,,,-1519.0,-3576.0,2642.0,-2.0,59.0,-34.0
30.661235809326172,,,-594.0,-3288.0,3282.0,-10.0,55.0,-66.0
30.681629180908203,,,-218.0,-3336.0,3182.0,-18.0,58.0,-79.0
30.70210838317871,,,-444.0,-3805.0,3385.0,-30.0,62.0,-85.0
30.722625017166138,,,-647.0,-4193.0,5284.0,-49.0,53.0,-94.0
30.743095636367798,,,-386.0,-3423.0,5971.0,-51.0,43.0,-113.0
30.76362943649292,,,-1550.0,-2386.0,6336.0,-56.0,39.0,-153.0
30.784088373184204,,,-2601.0,-2047.0,5960.0,-69.0,40.0,-152.0
30.804547786712646,,,-2621.0,-1356.0,5551.0,-81.0,37.0,-120.0
30.820987939834595,,,205.0,-893.0,4729.0,-91.0,14.0,-81.0
30.841464519500732,,,1426.0,-1212.0,4092.0,-92.0,9.0,-85.0
30.861838340759277,,,1984.0,-1680.0,3058.0,-94.0,4.0,-100.0
30.882349967956543,,,2798.0,-1893.0,-101.0,-103.0,-8.0,-92.0
30.90283751487732,,,4094.0,-2361.0,-1250.0,-108.0,-28.0,-93.0
30.92330002784729,,,4744.0,-2757.0,-1657.0,-115.0,-40.0,-136.0
30.94380760192871,,,3147.0,-2357.0,183.0,-111.0,-60.0,-261.0
30.964216947555542,,,1096.0,-790.0,2803.0,-113.0,-77.0,-258.0
30.9848051071167,,,99.0,2559.0,6911.0,-100.0,-89.0,-215.0
31.005094051361084,,,580.0,2265.0,6208.0,-95.0,-90.0,-205.0
31.025709629058838,,,337.0,1628.0,5120.0,-99.0,-93.0,-196.0
31.046143770217896,,,-682.0,2113.0,2748.0,-101.0,-96.0,-160.0
31.066656827926636,,,-681.0,2196.0,1553.0,-90.0,-98.0,-133.0
31.08698081970215,,,-566.0,1802.0,340.0,-78.0,-98.0,-113.0
31.107611894607544,,,-1018.0,234.0,-2341.0,-43.0,-96.0,-112.0
31.127962350845337,,,-1911.0,-321.0,-3764.0,-30.0,-95.0,-124.0
31.148484706878662,,,-2831.0,-231.0,-5071.0,-27.0,-96.0,-142.0
31.168914079666138,,,-2356.0,441.0,-6069.0,-29.0,-98.0,-175.0
31.189557552337646,,,-1087.0,219.0,-5817.0,-15.0,-98.0,-161.0
31.20995020866394,,,-122.0,-344.0,-5730.0,4.0,-99.0,-141.0
31.23045802116394,,,-589.0,-242.0,-6244.0,0.0,-113.0,-154.0
31.250998735427856,,,-868.0,951.0,-5592.0,-19.0,-121.0,-164.0
31.271563053131104,,,-1049.0,2319.0,-172.0,-30.0,-116.0,-126.0
31.291951894760132,,,-1898.0,2331.0,3508.0,-10.0,-93.0,-82.0
31.312373876571655,,,-3417.0,2201.0,5604.0,16.0,-59.0,-43.0
31.332749843597412,,,-6876.0,2714.0,4706.0,13.0,-31.0,-93.0
31.353374481201172,,,-6740.0,2677.0,3234.0,-6.0,-28.0,-138.0
31.37374997138977,,,-5855.0,2296.0,1970.0,-15.0,-43.0,-169.0
31.394365549087524,,,-3359.0,2452.0,656.0,-35.0,-83.0,-173.0
31.414706707000732,,,-1088.0,3122.0,1207.0,-43.0,-80.0,-138.0
31.435280323028564,,,1479.0,2787.0,2326.0,-34.0,-66.0,-90.0
31.45567035675049,,,2088.0,2024.0,3524.0,2.0,-52.0,-94.0
31.476353645324707,,,1578.0,3502.0,3535.0,-3.0,-60.0,-116.0
31.496814966201782,,,3776.0,5453.0,5048.0,-33.0,-78.0,-140.0
31.517210483551025,,,5075.0,4113.0,5922.0,-40.0,-79.0,-147.0
31.537689685821533,,,5491.0,2286.0,6253.0,-34.0,-73.0,-136.0
31.558234214782715,,,4457.0,514.0,4666.0,-14.0,-46.0,-68.0
31.578697681427002,,,3333.0,311.0,2943.0,-5.0,-35.0,-46.0
31.599215984344482,,,1995.0,104.0,1137.0,2.0,-31.0,-40.0
31.619683980941772,,,-442.0,-38.0,-2045.0,10.0,-28.0,-40.0
31.640388011932373,,,-1289.0,205.0,-3405.0,12.0,-27.0,-33.0
31.660887241363525,,,-1913.0,810.0,-4498.0,9.0,-27.0,-30.0
31.681556224822998,,,-2482.0,2446.0,-5268.0,-15.0,-42.0,-61.0
31.701984167099,,,-2069.0,2912.0,-5020.0,-24.0,-48.0,-81.0
31.722497701644897,,,-1269.0,2904.0,-4437.0,-31.0,-45.0,-90.0
31.74287462234497,,,-122.0,1426.0,-2079.0,-30.0,-39.0,-89.0
31.76347541809082,,,-313.0,440.0,-807.0,-21.0,-36.0,-85.0
31.783936738967896,,,-899.0,289.0,408.0,-17.0,-35.0,-51.0
31.804534435272217,,,-668.0,975.0,923.0,-22.0,-35.0,-35.0
31.824817419052124,,,-126.0,1807.0,1729.0,-27.0,-33.0,-24.0
31.845324993133545,,,1359.0,2442.0,3463.0,-30.0,-23.0,-22.0
31.865809679031372,,,1523.0,1950.0,3259.0,-28.0,-13.0,-32.0
31.886176109313965,,,277.0,1258.0,2243.0,-27.0,-6.0,-58.0
31.906583786010742,,,-413.0,899.0,1888.0,-25.0,-5.0,-59.0
31.92713737487793,,,-955.0,573.0,1579.0,-22.0,-3.0,-52.0
31.947630882263184,,,-1731.0,428.0,625.0,-15.0,-1.0,-41.0
31.968202829360962,,,-2020.0,493.0,95.0,-12.0,0.0,-36.0
31.988449573516846,,,-2196.0,631.0,-269.0,-10.0,0.0,-30.0
32.00898551940918,,,-2288.0,1179.0,-626.0,-8.0,-4.0,-16.0
32.02961730957031,,,-2272.0,1594.0,-719.0,-11.0,-6.0,-14.0
32.050055742263794,,,-2164.0,1878.0,-598.0,-16.0,-8.0,-17.0
32.07060503959656,,,-1918.0,1517.0,154.0,-19.0,-8.0,-31.0
32.09119963645935,,,-1947.0,1157.0,410.0,-18.0,-8.0,-39.0
32.11158990859985,,,-2189.0,707.0,363.0,-18.0,-7.0,-46.0
32.13214325904846,,,-3442.0,-536.0,0.0,-15.0,-3.0,-47.0
32.15260434150696,,,-4038.0,-758.0,-47.0,-11.0,1.0,-40.0
32.172778844833374,,,-4540.0,-105.0,23.0,-4.0,11.0,-15.0
32.193371295928955,,,-4622.0,717.0,122.0,0.0,15.0,-5.0
32.213932514190674,,,-4714.0,1740.0,270.0,2.0,15.0,-5.0
32.234190225601196,,,-4856.0,2897.0,403.0,-2.0,10.0,-17.0
32.25468111038208,,,-5039.0,2693.0,338.0,-4.0,6.0,-19.0
32.27529311180115,,,-5268.0,2241.0,202.0,-2.0,3.0,-15.0
32.295934200286865,,,-5466.0,1996.0,55.0,3.0,1.0,-6.0
32.31633377075195,,,-5135.0,2191.0,233.0,3.0,0.0,-6.0
32.3364737033844,,,-4483.0,2340.0,621.0,1.0,0.0,-13.0
32.357038736343384,,,-3340.0,1859.0,1457.0,-2.0,-9.0,-35.0
32.3774950504303,,,-3165.0,1107.0,1550.0,-2.0,-14.0,-36.0
32.39792346954346,,,-3062.0,122.0,2212.0,-1.0,-22.0,-20.0
32.41837000846863,,,-2765.0,-178.0,2335.0,2.0,-23.0,-4.0
32.43890357017517,,,-2357.0,-465.0,2067.0,8.0,-20.0,9.0
32.45935106277466,,,-1900.0,-725.0,1136.0,18.0,-14.0,22.0
32.479694843292236,,,-1798.0,-503.0,671.0,21.0,-13.0,26.0
32.50019979476929,,,-1588.0,-45.0,376.0,23.0,-12.0,29.0
32.52064061164856,,,-1009.0,1032.0,325.0,22.0,-11.0,24.0
32.54116892814636,,,-874.0,1264.0,350.0,23.0,-11.0,18.0
32.56187915802002,,,-906.0,1246.0,346.0,24.0,-12.0,12.0
32.582417488098145,,,-1192.0,876.0,54.0,27.0,-11.0,11.0
32.60291528701782,,,-1232.0,898.0,-116.0,27.0,-9.0,15.0
32.61929106712341,,,-1146.0,1148.0,-229.0,25.0,-6.0,17.0
32.63952684402466,,,-827.0,1706.0,-294.0,20.0,-1.0,11.0
32.66001009941101,,,-809.0,1776.0,-270.0,18.0,0.0,5.0
32.68077373504639,,,-968.0,1820.0,-395.0,15.0,2.0,-6.0
32.701072692871094,,,-1088.0,1974.0,-509.0,12.0,3.0,-13.0
32.7217915058136,,,-1237.0,2056.0,-636.0,9.0,3.0,-20.0
32.742270946502686,,,-1648.0,1670.0,-1159.0,9.0,3.0,-32.0
32.762877464294434,,,-1975.0,1363.0,-1667.0,12.0,5.0,-33.0
32.78331518173218,,,-2441.0,1244.0,-2254.0,16.0,7.0,-33.0
32.80366897583008,,,-3287.0,1919.0,-3321.0,14.0,3.0,-36.0
32.82420325279236,,,-3328.0,2381.0,-3627.0,10.0,0.0,-42.0
32.84475111961365,,,-3169.0,2757.0,-3705.0,7.0,-2.0,-53.0
32.865084171295166,,,-2716.0,3273.0,-2861.0,2.0,-11.0,-87.0
32.88557529449463,,,-2321.0,3373.0,-1880.0,-6.0,-19.0,-100.0
32.90614318847656,,,-1079.0,2571.0,1765.0,-28.0,-29.0,-99.0
32.92663049697876,,,-369.0,1856.0,4214.0,-31.0,-27.0,-88.0
32.94715332984924,,,374.0,1091.0,6648.0,-35.0,-23.0,-74.0
32.96760606765747,,,926.0,-951.0,10180.0,-36.0,-16.0,-55.0
32.9881010055542,,,837.0,-2163.0,11312.0,-26.0,-8.0,-43.0
33.00850033760071,,,319.0,-3103.0,11524.0,-12.0,-2.0,-27.0
33.02887177467346,,,-510.0,-3382.0,9752.0,6.0,-3.0,9.0
33.04945611953735,,,-325.0,-3446.0,8454.0,8.0,-7.0,24.0
33.06992816925049,,,414.0,-3742.0,7149.0,6.0,-7.0,41.0
33.09036946296692,,,2304.0,-4579.0,3926.0,9.0,7.0,86.0
33.11100769042969,,,2834.0,-4011.0,1959.0,11.0,12.0,92.0
33.131247997283936,,,3199.0,-2837.0,97.0,11.0,13.0,81.0
33.15223050117493,,,3618.0,-908.0,-2488.0,-2.0,18.0,48.0
33.172197341918945,,,2926.0,-596.0,-3427.0,-11.0,24.0,30.0
33.19268465042114,,,-1069.0,-868.0,-5108.0,-6.0,34.0,22.0
33.21325159072876,,,-3137.0,-776.0,-5656.0,2.0,34.0,37.0
33.23364472389221,,,-4375.0,-434.0,-5795.0,8.0,30.0,59.0
33.254175901412964,,,-3894.0,330.0,-5795.0,9.0,26.0,83.0
33.27457809448242,,,-3450.0,695.0,-5778.0,11.0,24.0,84.0
33.29533338546753,,,-3356.0,1177.0,-5750.0,14.0,18.0,81.0
33.31573724746704,,,-3773.0,2500.0,-5384.0,15.0,1.0,64.0
33.33617687225342,,,-3696.0,3181.0,-4861.0,14.0,-1.0,57.0
33.35656380653381,,,-3370.0,4173.0,-3768.0,12.0,3.0,48.0
33.377124547958374,,,-2676.0,6048.0,-32.0,7.0,14.0,11.0
33.397602558135986,,,-2898.0,5668.0,1591.0,5.0,11.0,-6.0
33.417994022369385,,,-3541.0,4620.0,3747.0,-3.0,-2.0,-21.0
33.43838405609131,,,-3372.0,4265.0,4457.0,-12.0,-2.0,-23.0
33.458860874176025,,,-3284.0,3431.0,4869.0,-15.0,0.0,-27.0
33.4795126914978,,,-3894.0,324.0,4509.0,3.0,-1.0,-18.0
33.499998569488525,,,-4083.0,-586.0,3894.0,11.0,-7.0,-12.0
33.52035903930664,,,-3681.0,-806.0,3307.0,8.0,-14.0,-6.0
33.54102110862732,,,-1196.0,-524.0,3687.0,-1.0,-18.0,12.0
33.5615017414093,,,-199.0,-1240.0,3686.0,0.0,-17.0,19.0
33.581701040267944,,,353.0,-2499.0,3640.0,2.0,-15.0,25.0
33.60247611999512,,,2109.0,-3015.0,4416.0,0.0,-18.0,63.0
33.62276530265808,,,2768.0,-3007.0,4530.0,-4.0,-16.0,77.0
33.643272399902344,,,2901.0,-3518.0,4447.0,-2.0,-10.0,90.0
33.66364288330078,,,2289.0,-3817.0,3902.0,11.0,-7.0,130.0
33.68420147895813,,,2116.0,-3042.0,3313.0,11.0,-11.0,149.0
33.70058083534241,,,1878.0,-983.0,1853.0,8.0,-18.0,165.0
33.72132611274719,,,1813.0,-237.0,1272.0,9.0,-24.0,169.0
33.74179220199585,,,1594.0,333.0,862.0,13.0,-28.0,166.0
33.76218509674072,,,240.0,1412.0,946.0,10.0,-42.0,154.0
33.78265166282654,,,-218.0,1534.0,1173.0,5.0,-48.0,157.0
33.803184270858765,,,-282.0,1252.0,1331.0,7.0,-51.0,160.0
33.82344579696655,,,179.0,877.0,1445.0,11.0,-51.0,157.0
33.844144344329834,,,148.0,887.0,1907.0,6.0,-59.0,156.0
33.86474823951721,,,175.0,794.0,2223.0,1.0,-67.0,157.0
33.88501977920532,,,251.0,633.0,1969.0,-5.0,-53.0,142.0
33.90521860122681,,,264.0,620.0,1984.0,-16.0,-50.0,132.0
33.9260528087616,,,493.0,515.0,2465.0,-26.0,-54.0,108.0
33.94627285003662,,,678.0,432.0,2574.0,-27.0,-50.0,98.0
33.96692752838135,,,814.0,477.0,2608.0,-31.0,-48.0,82.0
33.98739266395569,,,1170.0,406.0,2309.0,-38.0,-41.0,53.0
34.00787830352783,,,1514.0,191.0,2026.0,-38.0,-37.0,41.0
34.0282723903656,,,2130.0,-324.0,1499.0,-36.0,-32.0,32.0
34.04882860183716,,,3744.0,-1894.0,1098.0,-25.0,-27.0,1.0
34.0692343711853,,,3898.0,-1962.0,1159.0,-21.0,-26.0,-16.0
34.08958315849304,,,3627.0,-1760.0,983.0,-15.0,-21.0,-27.0
34.11050057411194,,,3322.0,-1567.0,476.0,-4.0,-10.0,-41.0
34.13083863258362,,,3743.0,-1707.0,-82.0,3.0,-3.0,-43.0
34.15122747421265,,,3914.0,-1825.0,-710.0,9.0,6.0,-44.0
34.171732664108276,,,2968.0,-1568.0,-991.0,8.0,23.0,-15.0
34.192323207855225,,,2448.0,-1481.0,-479.0,8.0,30.0,12.0
34.21275234222412,,,1813.0,-1533.0,1506.0,11.0,34.0,41.0
34.23313498497009,,,1350.0,-1555.0,2671.0,10.0,30.0,36.0
34.2536084651947,,,873.0,-1308.0,3583.0,9.0,24.0,22.0
34.27410697937012,,,417.0,-854.0,4321.0,1.0,21.0,-12.0
34.29881238937378,,,578.0,-976.0,4285.0,1.0,20.0,-23.0
34.319151878356934,,,816.0,-1504.0,4608.0,3.0,1.0,-5.0
34.339643478393555,,,837.0,-1644.0,4470.0,5.0,-8.0,7.0
34.360130071640015,,,871.0,-1585.0,4029.0,7.0,-5.0,6.0
34.38069987297058,,,1122.0,-1077.0,3887.0,12.0,-5.0,-31.0
34.4010329246521,,,1259.0,-1207.0,3608.0,16.0,-12.0,-37.0
34.41746497154236,,,1227.0,-1396.0,3121.0,20.0,-13.0,-35.0
34.43809628486633,,,712.0,-1262.0,3172.0,16.0,-7.0,-19.0
34.45841073989868,,,494.0,-1164.0,3485.0,14.0,-10.0,-16.0
34.47894096374512,,,335.0,-1169.0,3577.0,12.0,-14.0,-18.0
34.499451875686646,,,201.0,-1169.0,3391.0,10.0,-18.0,-26.0
34.5198917388916,,,245.0,-1164.0,3318.0,7.0,-18.0,-24.0
34.54046869277954,,,554.0,-1015.0,3546.0,7.0,-17.0,-27.0
34.56082844734192,,,711.0,-765.0,3648.0,9.0,-18.0,-29.0
34.58131647109985,,,763.0,-524.0,3582.0,10.0,-18.0,-24.0
34.60182237625122,,,453.0,-464.0,3222.0,7.0,-16.0,-15.0
34.62234830856323,,,319.0,-480.0,3181.0,7.0,-15.0,-14.0
34.64261198043823,,,173.0,-402.0,3271.0,5.0,-15.0,-14.0
34.66324186325073,,,78.0,-609.0,3372.0,5.0,-18.0,-12.0
34.68358373641968,,,285.0,-917.0,3181.0,8.0,-19.0,-14.0
34.70425271987915,,,467.0,-1134.0,2923.0,12.0,-19.0,-16.0
34.724857330322266,,,466.0,-1055.0,2464.0,15.0,-16.0,-9.0
34.745081424713135,,,391.0,-980.0,2365.0,14.0,-11.0,-5.0
34.76580548286438,,,422.0,-822.0,2509.0,14.0,-8.0,-8.0
34.786190032958984,,,485.0,-779.0,3016.0,19.0,-7.0,-16.0
34.8066201210022,,,292.0,-861.0,3097.0,20.0,-9.0,-18.0
34.82709789276123,,,95.0,-940.0,2947.0,22.0,-4.0,-12.0
34.847697257995605,,,139.0,-950.0,3015.0,23.0,-3.0,-7.0
34.86822247505188,,,181.0,-1006.0,3057.0,21.0,-5.0,-4.0
34.888598680496216,,,246.0,-1199.0,2941.0,18.0,-9.0,-9.0
34.909140825271606,,,290.0,-1234.0,2846.0,17.0,-9.0,-12.0
34.929322719573975,,,392.0,-1198.0,2752.0,18.0,-6.0,-13.0
34.95015788078308,,,545.0,-790.0,2859.0,20.0,0.0,-5.0
34.97058939933777,,,432.0,-568.0,3105.0,19.0,2.0,-1.0
34.990771770477295,,,224.0,-415.0,3385.0,20.0,2.0,-3.0
35.01169419288635,,,-94.0,-328.0,3530.0,21.0,2.0,-9.0
35.03198194503784,,,-44.0,-451.0,3582.0,18.0,4.0,-11.0
35.05250310897827,,,417.0,-570.0,3799.0,19.0,3.0,-13.0
35.07279300689697,,,487.0,-495.0,3727.0,20.0,1.0,-7.0
35.105490922927856,,,229.0,507.0,3113.0,8.0,-1.0,-10.0
35.12600755691528,,,256.0,439.0,3560.0,12.0,1.0,-8.0
35.14669179916382,,,185.0,271.0,3924.0,18.0,2.0,-5.0
35.16698169708252,,,-79.0,49.0,4039.0,25.0,0.0,-5.0
35.18777894973755,,,-798.0,-605.0,3463.0,28.0,0.0,-11.0
35.20813226699829,,,-837.0,-1161.0,3158.0,24.0,3.0,-14.0
35.22854495048523,,,-704.0,-1606.0,3213.0,18.0,5.0,-21.0
35.24898982048035,,,92.0,-1455.0,3940.0,10.0,2.0,-16.0
35.26947355270386,,,354.0,-1000.0,3865.0,14.0,-3.0,-6.0
35.29005169868469,,,351.0,-554.0,3317.0,19.0,-5.0,4.0
35.310383796691895,,,-454.0,184.0,2148.0,20.0,-4.0,15.0
35.33091902732849,,,-694.0,558.0,2203.0,12.0,-6.0,21.0
35.35131335258484,,,-441.0,948.0,2818.0,5.0,-12.0,26.0
35.371811866760254,,,1006.0,2098.0,3666.0,8.0,-17.0,24.0
35.39245629310608,,,1103.0,2655.0,3713.0,16.0,-17.0,8.0
35.41274642944336,,,69.0,2967.0,2816.0,17.0,-26.0,22.0
35.43326997756958,,,273.0,2714.0,2471.0,18.0,-21.0,28.0
35.45377731323242,,,691.0,2378.0,2709.0,20.0,-25.0,17.0
35.47419834136963,,,650.0,1603.0,3138.0,6.0,-32.0,40.0
35.49471163749695,,,895.0,1679.0,3286.0,0.0,-34.0,60.0
35.515159368515015,,,1908.0,1816.0,2887.0,10.0,-36.0,57.0
35.53556227684021,,,1730.0,3684.0,3171.0,24.0,-47.0,18.0
35.55611968040466,,,1435.0,4241.0,4067.0,19.0,-39.0,17.0
35.576510429382324,,,2114.0,3916.0,4564.0,16.0,-23.0,14.0
35.597031354904175,,,3371.0,2208.0,5605.0,23.0,-4.0,5.0
35.61742925643921,,,2635.0,1465.0,5124.0,18.0,10.0,3.0
35.63797330856323,,,689.0,1183.0,3570.0,6.0,37.0,-15.0
35.65835881233215,,,30.0,859.0,2801.0,8.0,44.0,-38.0
35.678991079330444,,,-954.0,68.0,2336.0,12.0,47.0,-61.0
35.69926619529724,,,-2156.0,-818.0,1647.0,12.0,52.0,-82.0
35.719982624053955,,,-3445.0,-1417.0,576.0,2.0,63.0,-96.0
35.74043345451355,,,-4901.0,-1313.0,163.0,-15.0,67.0,-96.0
35.760905504226685,,,-6306.0,-644.0,-490.0,-59.0,58.0,-127.0
35.78148698806763,,,-5700.0,-358.0,-1832.0,-76.0,60.0,-148.0
35.80189824104309,,,-4640.0,-92.0,-2970.0,-84.0,53.0,-166.0
35.82228350639343,,,-2524.0,177.0,-3555.0,-87.0,33.0,-200.0
35.84287428855896,,,-1320.0,157.0,-3463.0,-85.0,24.0,-194.0
35.86327052116394,,,-32.0,29.0,-3837.0,-85.0,26.0,-156.0
35.8841450214386,,,325.0,812.0,-3428.0,-85.0,22.0,-70.0
35.904303550720215,,,102.0,1269.0,-2656.0,-82.0,10.0,-71.0
35.92471742630005,,,723.0,3290.0,-581.0,-90.0,-13.0,-103.0
35.945148229599,,,2225.0,3982.0,1116.0,-93.0,-17.0,-117.0
35.96569800376892,,,3845.0,3559.0,3712.0,-85.0,-27.0,-135.0
35.98191285133362,,,4628.0,-485.0,7680.0,-58.0,-52.0,-160.0
36.002692222595215,,,4698.0,-1882.0,8396.0,-53.0,-47.0,-137.0
36.02312207221985,,,5364.0,-2331.0,9297.0,-47.0,-44.0,-111.0
36.04359769821167,,,5657.0,-3584.0,10225.0,-27.0,-37.0,-57.0
36.063976526260376,,,4505.0,-3655.0,9522.0,-15.0,-33.0,-44.0
36.08463644981384,,,3283.0,-2801.0,8510.0,-10.0,-32.0,-38.0
36.105003356933594,,,2119.0,-1067.0,6729.0,-9.0,-24.0,-12.0
36.12558579444885,,,2318.0,-567.0,6358.0,-15.0,-15.0,5.0
36.14595699310303,,,1304.0,-230.0,5414.0,-20.0,8.0,5.0
36.16652750968933,,,-15.0,-802.0,4905.0,-17.0,14.0,-2.0
36.186814308166504,,,-1439.0,-1763.0,4418.0,-13.0,13.0,7.0
36.20762038230896,,,-3806.0,-2828.0,2299.0,-6.0,20.0,36.0
36.22792410850525,,,-4403.0,-2141.0,1311.0,-12.0,26.0,34.0
36.2484872341156,,,-4473.0,-1099.0,1185.0,-22.0,27.0,20.0
36.26870131492615,,,-4444.0,-182.0,2627.0,-31.0,25.0,-8.0
36.28917932510376,,,-4473.0,-204.0,3243.0,-30.0,26.0,-2.0
36.3098087310791,,,-4406.0,32.0,3316.0,-27.0,26.0,6.0
36.330148458480835,,,-4010.0,839.0,1748.0,-23.0,24.0,3.0
36.35076355934143,,,-3673.0,836.0,288.0,-22.0,23.0,3.0
36.37153434753418,,,-3490.0,668.0,-1348.0,-20.0,21.0,8.0
36.391672134399414,,,-4017.0,1210.0,-4303.0,-13.0,12.0,29.0
36.412259340286255,,,-4006.0,1982.0,-5540.0,-13.0,7.0,29.0
36.43266296386719,,,-3066.0,3485.0,-6798.0,-22.0,5.0,6.0
36.45304584503174,,,-2740.0,3617.0,-6968.0,-24.0,3.0,-3.0
36.47372055053711,,,-2811.0,3591.0,-6902.0,-25.0,-2.0,-16.0
36.494025230407715,,,-2732.0,3440.0,-6629.0,-31.0,-11.0,-38.0
36.514739990234375,,,-2331.0,3138.0,-6494.0,-33.0,-12.0,-37.0
36.535120248794556,,,-1985.0,2607.0,-5984.0,-29.0,-14.0,-34.0
36.55559039115906,,,-1572.0,1575.0,-3122.0,-18.0,-16.0,-49.0
36.576012134552,,,-778.0,2034.0,-771.0,-23.0,-22.0,-61.0
36.59656023979187,,,923.0,2443.0,1628.0,-37.0,-22.0,-69.0
36.61704397201538,,,3389.0,249.0,6292.0,-35.0,-1.0,-56.0
36.63743734359741,,,3060.0,-829.0,8127.0,-18.0,3.0,-37.0
36.65784668922424,,,2719.0,-1260.0,8546.0,-15.0,14.0,-3.0
36.67847013473511,,,2616.0,-1826.0,7946.0,-14.0,22.0,14.0
36.698890686035156,,,2365.0,-2096.0,7092.0,-6.0,29.0,29.0
36.71926283836365,,,2059.0,-991.0,4098.0,8.0,42.0,51.0
36.739830017089844,,,1581.0,-760.0,1925.0,9.0,50.0,53.0
36.76021862030029,,,861.0,-1614.0,-158.0,10.0,55.0,51.0
36.7807240486145,,,-814.0,-2866.0,-1302.0,31.0,51.0,85.0
36.80118107795715,,,-487.0,-543.0,882.0,34.0,65.0,99.0
36.82169151306152,,,-2768.0,-453.0,4426.0,5.0,82.0,30.0
36.84222865104675,,,-4648.0,-3927.0,4373.0,17.0,79.0,24.0
36.862669944763184,,,-5284.0,-4949.0,5193.0,25.0,69.0,79.0
36.88317942619324,,,-3549.0,-3479.0,5974.0,5.0,61.0,138.0
36.903454542160034,,,-2539.0,-2965.0,6183.0,4.0,68.0,159.0
36.923863887786865,,,-1933.0,-1987.0,6390.0,13.0,68.0,156.0
36.94435095787048,,,-2697.0,721.0,4892.0,33.0,69.0,121.0
36.96482038497925,,,-3585.0,1575.0,3056.0,34.0,69.0,104.0
36.98516893386841,,,-4154.0,1578.0,761.0,27.0,65.0,90.0
37.00570368766785,,,-4564.0,479.0,-3095.0,20.0,41.0,83.0
37.02620840072632,,,-4869.0,285.0,-4488.0,21.0,25.0,82.0
37.046876668930054,,,-5415.0,732.0,-6357.0,23.0,22.0,75.0
37.0672562122345,,,-5324.0,939.0,-7005.0,17.0,22.0,62.0
37.087889432907104,,,-4842.0,828.0,-7569.0,9.0,21.0,46.0
37.10835838317871,,,-3609.0,460.0,-7100.0,-6.0,15.0,32.0
37.12886643409729,,,-2873.0,325.0,-5927.0,-12.0,14.0,31.0
37.14932656288147,,,-1890.0,35.0,-4269.0,-16.0,19.0,28.0
37.16973519325256,,,1255.0,-1091.0,736.0,-13.0,32.0,1.0
37.19002962112427,,,2464.0,-1947.0,2774.0,-9.0,31.0,3.0
37.21075987815857,,,3114.0,-2335.0,3580.0,-6.0,32.0,33.0
37.23117661476135,,,4264.0,-1813.0,4396.0,-6.0,43.0,69.0
37.251747369766235,,,5046.0,-1817.0,4540.0,-6.0,52.0,76.0
37.27219867706299,,,5560.0,-1764.0,3571.0,10.0,72.0,114.0
37.29273557662964,,,4931.0,-1441.0,2659.0,23.0,78.0,140.0
37.31294226646423,,,3815.0,-862.0,1721.0,31.0,80.0,157.0
37.33349800109863,,,1343.0,877.0,730.0,27.0,78.0,153.0
37.35404372215271,,,884.0,1487.0,1115.0,19.0,76.0,144.0
37.37447476387024,,,1121.0,1804.0,1583.0,16.0,74.0,137.0
37.39504909515381,,,1515.0,897.0,2167.0,21.0,71.0,125.0
37.41555953025818,,,1483.0,6.0,2311.0,31.0,68.0,125.0
37.436028242111206,,,920.0,-966.0,2349.0,42.0,69.0,124.0
37.4564733505249,,,-1094.0,-2853.0,1798.0,51.0,63.0,125.0
37.476757526397705,,,-2018.0,-3806.0,1468.0,52.0,58.0,124.0
37.49734306335449,,,-3033.0,-4757.0,1704.0,50.0,52.0,115.0
37.51777482032776,,,-5063.0,-6284.0,3959.0,28.0,54.0,61.0
37.538313150405884,,,-4839.0,-6801.0,4493.0,14.0,60.0,40.0
37.55896282196045,,,-1862.0,-7569.0,3433.0,5.0,60.0,36.0
37.5794563293457,,,-769.0,-7618.0,2688.0,6.0,54.0,33.0
37.59991812705994,,,-557.0,-7446.0,1911.0,3.0,46.0,29.0
37.62038493156433,,,-1044.0,-6432.0,47.0,-15.0,41.0,9.0
37.640687704086304,,,-714.0,-5684.0,-1022.0,-21.0,41.0,4.0
37.661182165145874,,,117.0,-4944.0,-2265.0,-24.0,40.0,10.0
37.68157982826233,,,1977.0,-4382.0,-5108.0,-22.0,28.0,44.0
37.7022967338562,,,1904.0,-4071.0,-6057.0,-25.0,20.0,54.0
37.72262620925903,,,1104.0,-3395.0,-6096.0,-33.0,18.0,48.0
37.743183612823486,,,-66.0,-1351.0,-3830.0,-44.0,24.0,35.0
37.76368451118469,,,-90.0,-330.0,-1740.0,-49.0,26.0,13.0
37.780030727386475,,,2143.0,1375.0,1923.0,-48.0,27.0,-8.0
37.80074763298035,,,3379.0,1591.0,3058.0,-38.0,30.0,6.0
37.82101392745972,,,3727.0,1386.0,4101.0,-31.0,34.0,26.0
37.84160089492798,,,3529.0,1429.0,4471.0,-25.0,39.0,57.0
37.86223483085632,,,3514.0,1805.0,3729.0,-14.0,45.0,71.0
37.88244938850403,,,3267.0,1724.0,2953.0,0.0,48.0,81.0
37.9028902053833,,,2226.0,433.0,1618.0,20.0,42.0,86.0
37.92363238334656,,,1591.0,-330.0,1019.0,28.0,39.0,86.0
37.94389319419861,,,916.0,-1132.0,484.0,31.0,36.0,82.0
37.96447539329529,,,177.0,-2301.0,-523.0,27.0,23.0,56.0
37.9847846031189,,,394.0,-2442.0,-980.0,23.0,19.0,42.0
38.005391359329224,,,949.0,-2362.0,-1231.0,20.0,15.0,37.0
38.025681018829346,,,1953.0,-2000.0,-930.0,22.0,10.0,42.0
38.04643249511719,,,2051.0,-2016.0,-455.0,23.0,7.0,38.0
38.06701874732971,,,2057.0,-2438.0,923.0,18.0,5.0,21.0
38.087491273880005,,,2363.0,-2582.0,1543.0,16.0,8.0,15.0
38.10810041427612,,,2889.0,-2776.0,2089.0,14.0,11.0,14.0
38.12826204299927,,,3702.0,-3560.0,3030.0,17.0,15.0,14.0
38.148648738861084,,,4171.0,-4056.0,3009.0,18.0,16.0,7.0
38.16921925544739,,,4811.0,-4334.0,2612.0,17.0,14.0,2.0
38.18969774246216,,,5592.0,-4169.0,1567.0,11.0,6.0,8.0
38.21039438247681,,,5374.0,-4161.0,1363.0,8.0,2.0,7.0
38.230870485305786,,,4916.0,-4348.0,1366.0,4.0,-2.0,1.0
38.251424074172974,,,4447.0,-4502.0,1158.0,-2.0,-8.0,-13.0
38.27168011665344,,,4510.0,-4461.0,1025.0,-3.0,-13.0,-16.0
38.292248487472534,,,4360.0,-4421.0,533.0,-5.0,-20.0,-16.0
38.31280040740967,,,3982.0,-4406.0,203.0,-9.0,-23.0,-21.0
38.33314323425293,,,3510.0,-4255.0,-221.0,-13.0,-25.0,-26.0
38.353490591049194,,,2645.0,-3603.0,-1092.0,-21.0,-30.0,-39.0
38.37400817871094,,,2239.0,-3219.0,-1273.0,-24.0,-31.0,-45.0
38.394426107406616,,,1903.0,-2789.0,-1247.0,-26.0,-31.0,-48.0
38.414923906326294,,,1786.0,-1744.0,-943.0,-21.0,-29.0,-39.0
38.435505390167236,,,1577.0,-1280.0,-652.0,-17.0,-29.0,-38.0
38.45611906051636,,,954.0,-843.0,-198.0,-15.0,-32.0,-41.0
38.476402044296265,,,5.0,730.0,142.0,-21.0,-39.0,-54.0
38.49700927734375,,,189.0,1603.0,13.0,-21.0,-37.0,-61.0
38.51743125915527,,,359.0,2208.0,250.0,-18.0,-33.0,-59.0
38.537782430648804,,,131.0,3023.0,1075.0,-17.0,-22.0,-34.0
38.55813813209534,,,189.0,3267.0,1029.0,-17.0,-16.0,-22.0
38.578831911087036,,,720.0,3043.0,219.0,-9.0,-3.0,-4.0
38.5991907119751,,,611.0,2755.0,-89.0,-4.0,2.0,2.0
38.61978030204773,,,258.0,2443.0,-294.0,-3.0,5.0,4.0
38.64021039009094,,,-437.0,1937.0,-374.0,-3.0,10.0,5.0
38.660664319992065,,,-536.0,1829.0,-236.0,-5.0,12.0,5.0
38.6811306476593,,,-237.0,1927.0,-258.0,-4.0,14.0,7.0
38.70172834396362,,,792.0,2649.0,-715.0,3.0,20.0,22.0
38.72218084335327,,,1053.0,2759.0,-782.0,4.0,21.0,31.0
38.742671251297,,,1183.0,2663.0,-509.0,5.0,19.0,40.0
38.76325607299805,,,1195.0,1737.0,446.0,16.0,11.0,45.0
38.78371596336365,,,1057.0,781.0,971.0,18.0,11.0,33.0
38.80444884300232,,,1768.0,-1085.0,2145.0,13.0,15.0,9.0
38.82468628883362,,,2680.0,-1779.0,2588.0,10.0,16.0,7.0
38.845064640045166,,,3555.0,-2440.0,2925.0,9.0,18.0,14.0
38.861579179763794,,,4060.0,-4086.0,3525.0,-2.0,22.0,15.0
38.88213562965393,,,4064.0,-4450.0,3893.0,-16.0,20.0,1.0
38.90235733985901,,,4458.0,-4268.0,4287.0,-23.0,17.0,-7.0
38.922948598861694,,,5973.0,-3670.0,4106.0,-12.0,6.0,-7.0
38.943400144577026,,,6237.0,-3516.0,3314.0,-4.0,0.0,-2.0
38.96388864517212,,,5728.0,-3299.0,2386.0,-2.0,-3.0,0.0
38.98436617851257,,,4266.0,-2530.0,85.0,-4.0,-12.0,6.0
39.004730463027954,,,4008.0,-2148.0,-1260.0,-2.0,-14.0,17.0
39.025063276290894,,,3870.0,-1937.0,-2556.0,2.0,-17.0,29.0
39.0454478263855,,,2569.0,-1795.0,-4531.0,3.0,-18.0,42.0
39.06593656539917,,,1516.0,-1666.0,-4787.0,0.0,-15.0,41.0
39.08643078804016,,,528.0,-1292.0,-3426.0,-6.0,-15.0,19.0
39.1068811416626,,,683.0,-1009.0,-2110.0,-7.0,-13.0,7.0
39.127758502960205,,,972.0,-593.0,-597.0,-7.0,-10.0,3.0
39.14821410179138,,,1638.0,601.0,2192.0,-5.0,-7.0,11.0
39.16870903968811,,,1739.0,971.0,3472.0,-6.0,-5.0,15.0
39.189066648483276,,,1502.0,1316.0,4591.0,-7.0,2.0,16.0
39.20958638191223,,,2642.0,1510.0,4350.0,1.0,13.0,-2.0
39.230037450790405,,,2935.0,1410.0,4594.0,5.0,17.0,1.0
39.25035214424133,,,2914.0,1066.0,4814.0,8.0,18.0,10.0
39.27080035209656,,,3387.0,308.0,3791.0,14.0,22.0,35.0
39.29159164428711,,,3410.0,-162.0,3140.0,19.0,20.0,43.0
39.31602740287781,,,2309.0,-932.0,1577.0,14.0,12.0,43.0
39.336721897125244,,,1688.0,-1045.0,805.0,7.0,11.0,38.0
39.357146978378296,,,1403.0,-977.0,305.0,3.0,11.0,37.0
39.377588510513306,,,1630.0,-827.0,-28.0,7.0,10.0,38.0
39.39795756340027,,,1744.0,-839.0,-39.0,9.0,9.0,39.0
39.41850233078003,,,1701.0,-900.0,18.0,10.0,8.0,39.0
39.43889403343201,,,1208.0,-902.0,228.0,9.0,3.0,28.0
39.45937132835388,,,1048.0,-583.0,452.0,9.0,2.0,21.0
39.47995042800903,,,1458.0,322.0,1306.0,12.0,-4.0,10.0
39.50014781951904,,,1657.0,585.0,1763.0,15.0,-9.0,11.0
39.52051091194153,,,1498.0,692.0,2230.0,16.0,-12.0,15.0
39.54089951515198,,,1116.0,1122.0,2667.0,13.0,-11.0,23.0
39.56148672103882,,,1844.0,1263.0,2702.0,12.0,-14.0,26.0
39.577757835388184,,,2890.0,1137.0,2746.0,13.0,-22.0,35.0
39.59831738471985,,,4046.0,680.0,3145.0,21.0,-32.0,72.0
39.61871075630188,,,3984.0,407.0,3437.0,26.0,-33.0,86.0
39.63925528526306,,,3945.0,-73.0,3845.0,27.0,-39.0,93.0
39.65974164009094,,,3883.0,-893.0,4581.0,25.0,-57.0,109.0
39.680328607559204,,,3665.0,-1037.0,4599.0,23.0,-64.0,113.0
39.70065212249756,,,3170.0,-1353.0,4296.0,12.0,-77.0,111.0
39.721203565597534,,,2784.0,-1652.0,4420.0,2.0,-82.0,104.0
39.7416090965271,,,2060.0,-1718.0,4733.0,-12.0,-87.0,98.0
39.76220941543579,,,824.0,-480.0,4930.0,-25.0,-95.0,87.0
39.78267765045166,,,650.0,188.0,4757.0,-30.0,-101.0,80.0
39.80307173728943,,,490.0,891.0,4409.0,-34.0,-106.0,76.0
39.823643922805786,,,-741.0,1678.0,4013.0,-39.0,-106.0,66.0
39.8441162109375,,,-1789.0,1803.0,3813.0,-43.0,-105.0,54.0
39.86480212211609,,,-2396.0,1929.0,3321.0,-47.0,-103.0,33.0
39.885586977005005,,,-2139.0,2914.0,2156.0,-39.0,-96.0,11.0
39.90604090690613,,,-1915.0,3248.0,1693.0,-33.0,-92.0,14.0
39.926557779312134,,,-1742.0,3237.0,1269.0,-31.0,-86.0,17.0
39.94675278663635,,,-2044.0,2598.0,473.0,-36.0,-76.0,3.0
39.96737861633301,,,-2197.0,2159.0,-115.0,-35.0,-69.0,-25.0
39.988115072250366,,,-3001.0,1092.0,-388.0,-40.0,-72.0,-98.0
40.00842618942261,,,-3238.0,1410.0,-163.0,-40.0,-69.0,-124.0
40.02889347076416,,,-3145.0,2267.0,77.0,-33.0,-64.0,-135.0
40.04921364784241,,,-2984.0,3640.0,552.0,-24.0,-55.0,-95.0
40.069822549819946,,,-2657.0,4369.0,467.0,-21.0,-47.0,-58.0
40.090349197387695,,,-2347.0,4750.0,519.0,-15.0,-37.0,-36.0
40.110756158828735,,,-2264.0,4351.0,1043.0,-10.0,-22.0,-12.0
40.13128399848938,,,-2336.0,3944.0,1390.0,-7.0,-18.0,-4.0
40.15182423591614,,,-2361.0,3535.0,1779.0,-2.0,-16.0,-3.0
40.17233204841614,,,-2378.0,2981.0,2239.0,9.0,-8.0,-12.0
40.19282650947571,,,-2533.0,2571.0,2502.0,5.0,-8.0,-7.0
40.21336531639099,,,-2406.0,2340.0,2969.0,0.0,-4.0,-6.0
40.23373532295227,,,-2198.0,2146.0,3240.0,0.0,-2.0,-5.0
40.25422644615173,,,-2144.0,2107.0,3342.0,1.0,1.0,-1.0
40.27446365356445,,,-2004.0,1902.0,3151.0,0.0,0.0,5.0
40.295191526412964,,,-2035.0,2054.0,3216.0,0.0,0.0,6.0
40.315388917922974,,,-2000.0,2365.0,3404.0,4.0,2.0,5.0
40.33612656593323,,,-1686.0,1587.0,3195.0,10.0,8.0,7.0
40.35653209686279,,,-1842.0,1005.0,3134.0,8.0,9.0,4.0
40.37697720527649,,,-2023.0,1043.0,3441.0,7.0,6.0,4.0
40.397281885147095,,,-1827.0,1444.0,3775.0,19.0,9.0,22.0
40.41808247566223,,,-1701.0,678.0,3557.0,17.0,9.0,27.0
40.438331842422485,,,-1592.0,202.0,3269.0,14.0,10.0,23.0
40.45883870124817,,,-1348.0,1172.0,3006.0,13.0,11.0,16.0
40.47926044464111,,,-1215.0,1900.0,2678.0,18.0,17.0,16.0
40.49971532821655,,,-753.0,1913.0,2755.0,24.0,25.0,22.0
40.52009296417236,,,-721.0,1612.0,3236.0,21.0,22.0,25.0
40.54069495201111,,,-931.0,1235.0,3875.0,20.0,20.0,28.0
40.561217069625854,,,-1259.0,-260.0,3962.0,11.0,9.0,14.0
40.58163642883301,,,-1189.0,-610.0,3704.0,7.0,6.0,-3.0
40.602128982543945,,,-925.0,-74.0,3391.0,3.0,6.0,-13.0
40.62263083457947,,,-1107.0,1014.0,3947.0,6.0,-1.0,-1.0
40.64302110671997,,,-947.0,744.0,3634.0,5.0,-5.0,0.0
40.65951180458069,,,-825.0,475.0,3159.0,4.0,-5.0,-11.0
40.679840326309204,,,-795.0,496.0,3169.0,4.0,-7.0,-26.0
40.700427293777466,,,-801.0,547.0,3248.0,5.0,-4.0,-13.0
40.72091770172119,,,-747.0,266.0,3451.0,5.0,-4.0,-10.0
40.74150347709656,,,-587.0,-46.0,3456.0,2.0,-7.0,-15.0
40.76197028160095,,,-402.0,-145.0,3275.0,1.0,-8.0,-19.0
40.78242254257202,,,-200.0,290.0,3268.0,1.0,-5.0,-10.0
40.802823543548584,,,-260.0,379.0,3379.0,2.0,-4.0,-9.0
40.82327198982239,,,-330.0,352.0,3382.0,2.0,-4.0,-13.0
40.843748331069946,,,-251.0,313.0,3098.0,-1.0,-3.0,-14.0
40.864511489868164,,,-228.0,613.0,3134.0,-2.0,-1.0,-6.0
40.885016202926636,,,-234.0,835.0,3306.0,-1.0,1.0,-1.0
40.905394554138184,,,-291.0,348.0,3275.0,0.0,-1.0,-3.0
40.92579913139343,,,-288.0,163.0,3130.0,0.0,-2.0,-11.0
40.94641947746277,,,-265.0,283.0,3145.0,-1.0,-3.0,-12.0
40.96684217453003,,,-233.0,650.0,3403.0,2.0,0.0,4.0
40.98730516433716,,,-309.0,518.0,3481.0,2.0,-1.0,2.0
41.00783705711365,,,-260.0,152.0,3315.0,1.0,-1.0,-5.0
41.028295040130615,,,-207.0,197.0,3273.0,0.0,0.0,-4.0
41.04878520965576,,,-167.0,318.0,3335.0,0.0,0.0,-1.0
41.069130420684814,,,-211.0,221.0,3395.0,0.0,-1.0,-3.0
41.089958906173706,,,-337.0,69.0,3481.0,0.0,-1.0,-7.0
41.110244035720825,,,-401.0,74.0,3495.0,0.0,-1.0,-9.0
41.13080811500549,,,-456.0,-89.0,3402.0,1.0,-1.0,-14.0
41.151249408721924,,,-513.0,-139.0,3373.0,0.0,-1.0,-7.0
41.17157578468323,,,-546.0,-57.0,3393.0,0.0,0.0,-2.0
41.192214488983154,,,-503.0,-54.0,3405.0,1.0,0.0,-4.0
41.21272349357605,,,-479.0,-140.0,3370.0,0.0,-1.0,-3.0
41.23287487030029,,,-484.0,-189.0,3357.0,-3.0,-4.0,-3.0
41.25350093841553,,,-467.0,-99.0,3406.0,-2.0,-4.0,-4.0
41.274110078811646,,,-406.0,-81.0,3443.0,-2.0,-5.0,-4.0
41.29447793960571,,,-263.0,-29.0,3231.0,-5.0,-4.0,-2.0
41.31477355957031,,,-252.0,180.0,3181.0,-3.0,-3.0,0.0
41.33541798591614,,,-195.0,318.0,3175.0,-2.0,-2.0,1.0
41.35569405555725,,,-132.0,167.0,3290.0,-2.0,-2.0,0.0
41.37647604942322,,,-89.0,220.0,3259.0,-2.0,-1.0,0.0
41.39691185951233,,,-106.0,305.0,3306.0,-2.0,0.0,0.0
41.417288064956665,,,-240.0,160.0,3542.0,-1.0,-2.0,1.0
41.43769574165344,,,-206.0,132.0,3429.0,-1.0,-2.0,-2.0
41.45821475982666,,,-175.0,170.0,3394.0,-1.0,-1.0,-2.0
41.47874116897583,,,-232.0,77.0,3479.0,-2.0,-2.0,-1.0
41.49928593635559,,,-224.0,91.0,3429.0,-2.0,-2.0,0.0
41.51965022087097,,,-210.0,166.0,3416.0,-1.0,-2.0,0.0
41.5400116443634,,,-191.0,18.0,3374.0,-1.0,-2.0,-2.0
41.56070518493652,,,-135.0,-53.0,3226.0,0.0,-2.0,-5.0
41.581167697906494,,,-144.0,252.0,3211.0,1.0,0.0,1.0
41.601755142211914,,,-185.0,81.0,3207.0,1.0,-1.0,3.0
41.62213468551636,,,-177.0,-76.0,3104.0,0.0,0.0,2.0
41.6424925327301,,,-164.0,52.0,3122.0,-1.0,0.0,0.0
41.663212299346924,,,-109.0,121.0,3057.0,-1.0,1.0,2.0
41.68361830711365,,,-88.0,147.0,3016.0,-1.0,2.0,4.0
41.70396137237549,,,-165.0,87.0,3107.0,-2.0,1.0,4.0
41.7243492603302,,,-140.0,132.0,3087.0,-3.0,2.0,6.0
41.74118900299072,,,-127.0,76.0,3350.0,-3.0,2.0,4.0
41.76131582260132,,,-198.0,-12.0,3488.0,-2.0,2.0,-1.0
41.781946897506714,,,-201.0,8.0,3522.0,-2.0,0.0,-2.0
41.80224967002869,,,-125.0,84.0,3515.0,-1.0,-1.0,-1.0
41.82694864273071,,,-150.0,26.0,3464.0,0.0,-1.0,-2.0
41.85959577560425,,,-188.0,-40.0,3412.0,0.0,-2.0,-3.0
41.87603783607483,,,-194.0,-106.0,3374.0,-1.0,-3.0,-4.0
41.89666533470154,,,-172.0,-93.0,3349.0,-1.0,-1.0,-4.0
41.91691851615906,,,-168.0,-45.0,3406.0,-1.0,0.0,-3.0
41.937519788742065,,,-160.0,-172.0,3378.0,-2.0,0.0,-4.0
41.95802187919617,,,-232.0,-171.0,3410.0,-3.0,-1.0,-4.0
41.97847819328308,,,-234.0,-8.0,3481.0,-3.0,-2.0,-4.0
41.999085426330566,,,-224.0,78.0,3406.0,-1.0,-1.0,-4.0
42.01947021484375,,,-186.0,62.0,3310.0,-1.0,-1.0,-4.0
42.03988075256348,,,-141.0,67.0,3231.0,-1.0,0.0,-3.0
42.060518980026245,,,-125.0,86.0,3173.0,-1.0,0.0,-2.0
42.08080840110779,,,-65.0,75.0,3128.0,-1.0,1.0,-2.0
42.10133647918701,,,-45.0,4.0,3117.0,-1.0,0.0,-2.0
42.12197232246399,,,-18.0,13.0,3028.0,-1.0,1.0,0.0
42.14239430427551,,,-44.0,-19.0,3031.0,-1.0,1.0,0.0
42.16262364387512,,,19.0,58.0,3145.0,0.0,0.0,-6.0
42.18333411216736,,,79.0,316.0,3175.0,1.0,1.0,-1.0
42.20366382598877,,,65.0,318.0,3277.0,2.0,2.0,4.0
42.224313259124756,,,-67.0,-88.0,3401.0,3.0,2.0,0.0
42.24467945098877,,,-69.0,-116.0,3463.0,3.0,1.0,-5.0
42.265257358551025,,,-12.0,86.0,3558.0,3.0,0.0,-2.0
42.285762548446655,,,-51.0,105.0,3649.0,4.0,-2.0,0.0
