time,/ext_usb_camera/image/compressed,robogame/imu_state,robogame/imu_state.linear_acc.x,robogame/imu_state.linear_acc.y,robogame/imu_state.linear_acc.z,robogame/imu_state.gyro.z,robogame/imu_state.gyro.x,robogame/imu_state.gyro.y
0.0,,,3240.0,613.0,-2848.0,-12.0,0.0,33.0
0.020548105239868164,,,2202.0,1359.0,-3070.0,-5.0,15.0,27.0
0.04100608825683594,,,-330.0,2739.0,-818.0,18.0,52.0,15.0
0.06133317947387695,,,-1360.0,1899.0,2215.0,23.0,27.0,11.0
0.08176517486572266,,,-2556.0,640.0,4310.0,7.0,-33.0,30.0
0.1023416519165039,,,-2481.0,-1230.0,3423.0,-37.0,-84.0,58.0
0.12275075912475586,,,-1462.0,-1877.0,2002.0,-43.0,-74.0,47.0
0.1434943675994873,,,436.0,-3350.0,-440.0,-39.0,-36.0,17.0
0.16404151916503906,,,1047.0,-3681.0,-1161.0,-19.0,-6.0,-19.0
0.18444561958312988,,,970.0,-3563.0,-77.0,8.0,12.0,-63.0
0.20490074157714844,,,-155.0,-2102.0,4166.0,45.0,24.0,-97.0
0.2255852222442627,,,-197.0,-1896.0,6098.0,32.0,23.0,-99.0
0.2460167407989502,,,612.0,-1709.0,7004.0,7.0,10.0,-83.0
0.2663595676422119,,,2851.0,-1041.0,5870.0,-7.0,5.0,-44.0
0.2869141101837158,,,3533.0,-819.0,5320.0,-11.0,11.0,-29.0
0.3074038028717041,,,3748.0,-784.0,5191.0,-16.0,13.0,-18.0
0.32774853706359863,,,3312.0,-1375.0,4844.0,-14.0,7.0,-13.0
0.34835386276245117,,,3133.0,-1716.0,4358.0,-10.0,7.0,-23.0
0.36478424072265625,,,3138.0,-1818.0,3730.0,-5.0,11.0,-36.0
0.38512659072875977,,,3423.0,-1311.0,3025.0,-3.0,23.0,-47.0
0.4054388999938965,,,3563.0,-906.0,3112.0,-3.0,28.0,-46.0
0.4260365962982178,,,3707.0,-305.0,3938.0,-6.0,21.0,-29.0
0.44649314880371094,,,3721.0,-122.0,4240.0,-6.0,16.0,-14.0
0.4670231342315674,,,3620.0,-32.0,4315.0,-6.0,14.0,2.0
0.48740053176879883,,,2473.0,0.0,4329.0,-11.0,22.0,35.0
0.5079777240753174,,,1321.0,127.0,4316.0,-12.0,28.0,45.0
0.5286145210266113,,,-62.0,82.0,4254.0,-12.0,30.0,49.0
0.5492758750915527,,,-2677.0,-992.0,3487.0,-11.0,9.0,41.0
0.569568395614624,,,-3518.0,-1440.0,2717.0,-10.0,-4.0,32.0
0.5898952484130859,,,-3804.0,-1592.0,1906.0,-4.0,-10.0,17.0
0.6148116588592529,,,-2981.0,-1462.0,315.0,7.0,-12.0,-10.0
0.6352589130401611,,,-2248.0,-1581.0,-323.0,10.0,-18.0,-13.0
0.6556715965270996,,,-761.0,-1890.0,-1695.0,9.0,-34.0,-5.0
0.676302433013916,,,26.0,-2027.0,-2480.0,8.0,-41.0,-1.0
0.6967935562133789,,,724.0,-2053.0,-3315.0,9.0,-48.0,-1.0
0.7174408435821533,,,1747.0,-1779.0,-5065.0,14.0,-50.0,-19.0
0.7375781536102295,,,2133.0,-1302.0,-5736.0,20.0,-39.0,-33.0
0.7583158016204834,,,2990.0,-19.0,-5998.0,36.0,-9.0,-51.0
0.7789504528045654,,,3210.0,620.0,-5328.0,43.0,7.0,-52.0
0.799114465713501,,,3122.0,1169.0,-4264.0,50.0,25.0,-47.0
0.8196005821228027,,,1874.0,2142.0,-1584.0,55.0,56.0,-31.0
0.8402855396270752,,,679.0,3341.0,-453.0,56.0,59.0,-32.0
0.8606019020080566,,,-945.0,5058.0,1269.0,63.0,77.0,-21.0
0.8813376426696777,,,-3065.0,2889.0,7324.0,75.0,13.0,-1.0
0.9015369415283203,,,-4623.0,1577.0,7766.0,41.0,-58.0,57.0
0.9221136569976807,,,-5846.0,933.0,7050.0,0.0,-61.0,60.0
0.9425048828125,,,-4864.0,276.0,4407.0,-18.0,-10.0,20.0
0.9631006717681885,,,-4563.0,58.0,4329.0,-14.0,8.0,9.0
0.983607292175293,,,-4280.0,285.0,4845.0,-5.0,12.0,5.0
1.0042176246643066,,,-3687.0,799.0,5566.0,-2.0,-8.0,34.0
1.0247197151184082,,,-3662.0,762.0,5142.0,-1.0,-12.0,41.0
1.0450243949890137,,,-3665.0,70.0,3170.0,-3.0,-6.0,26.0
1.0653753280639648,,,-3424.0,-249.0,2242.0,-7.0,-1.0,18.0
1.0820491313934326,,,-3059.0,-376.0,1421.0,-6.0,7.0,9.0
1.1024811267852783,,,-2626.0,-575.0,864.0,2.0,11.0,2.0
1.1230289936065674,,,-2233.0,-830.0,502.0,8.0,7.0,-1.0
1.1433115005493164,,,-1858.0,-1024.0,144.0,11.0,0.0,-1.0
1.1639339923858643,,,-1086.0,-1252.0,-813.0,15.0,-8.0,-3.0
1.1845369338989258,,,-710.0,-1208.0,-1178.0,15.0,-11.0,-8.0
1.2047381401062012,,,-319.0,-994.0,-1234.0,15.0,-11.0,-13.0
1.225358247756958,,,453.0,-287.0,-416.0,15.0,-2.0,-14.0
1.2457544803619385,,,696.0,-59.0,5.0,10.0,-1.0,-10.0
1.2663838863372803,,,1055.0,-41.0,365.0,-9.0,-2.0,-2.0
1.286696434020996,,,1203.0,-155.0,556.0,-15.0,0.0,0.0
1.3073194026947021,,,1355.0,-363.0,898.0,-16.0,0.0,3.0
1.3277418613433838,,,1500.0,-765.0,1166.0,-13.0,-2.0,7.0
1.34828782081604,,,1558.0,-901.0,1069.0,-11.0,1.0,4.0
1.3686985969543457,,,1604.0,-939.0,1052.0,-10.0,5.0,-4.0
1.3893189430236816,,,1786.0,-1049.0,1940.0,-7.0,15.0,-18.0
1.409895420074463,,,2003.0,-1168.0,2538.0,-9.0,14.0,-16.0
1.4304418563842773,,,2337.0,-1189.0,2815.0,-13.0,12.0,-9.0
1.450676679611206,,,3100.0,-928.0,2443.0,-22.0,8.0,9.0
1.4712064266204834,,,3496.0,-590.0,2091.0,-24.0,6.0,17.0
1.4916625022888184,,,3872.0,-83.0,1786.0,-23.0,6.0,23.0
1.5120363235473633,,,4310.0,976.0,1388.0,-18.0,10.0,35.0
1.5325860977172852,,,4202.0,1214.0,1303.0,-20.0,15.0,41.0
1.5530316829681396,,,3500.0,1147.0,1232.0,-26.0,15.0,47.0
1.573734998703003,,,3125.0,1005.0,1153.0,-24.0,12.0,45.0
1.5942878723144531,,,2762.0,757.0,1109.0,-17.0,8.0,40.0
1.6146671772003174,,,1966.0,-132.0,1338.0,-1.0,3.0,25.0
1.635162353515625,,,1590.0,-644.0,1454.0,4.0,4.0,16.0
1.6555252075195312,,,1408.0,-1089.0,1426.0,5.0,9.0,5.0
1.6759748458862305,,,1695.0,-917.0,1410.0,4.0,21.0,-15.0
1.6965489387512207,,,1864.0,-479.0,1824.0,6.0,28.0,-14.0
1.7170579433441162,,,1874.0,-171.0,2387.0,7.0,30.0,-7.0
1.7376008033752441,,,1511.0,-49.0,2804.0,4.0,25.0,11.0
1.7580657005310059,,,1204.0,-46.0,2562.0,2.0,23.0,14.0
1.7785868644714355,,,691.0,-145.0,1979.0,2.0,21.0,12.0
1.798947811126709,,,472.0,-126.0,1772.0,3.0,17.0,9.0
1.8194401264190674,,,254.0,-12.0,1644.0,5.0,14.0,5.0
1.8400380611419678,,,-195.0,302.0,1614.0,8.0,8.0,-1.0
1.8604097366333008,,,-476.0,416.0,1672.0,8.0,4.0,-3.0
1.8809924125671387,,,-752.0,445.0,1723.0,6.0,0.0,-3.0
1.9014534950256348,,,-1147.0,307.0,1582.0,2.0,-11.0,-6.0
1.9218168258666992,,,-1301.0,284.0,1406.0,2.0,-14.0,-10.0
1.9423127174377441,,,-1408.0,279.0,1297.0,1.0,-16.0,-14.0
1.9627552032470703,,,-1392.0,211.0,1172.0,-2.0,-24.0,-19.0
1.983201503753662,,,-1265.0,284.0,932.0,-5.0,-26.0,-22.0
2.003704786300659,,,-1081.0,399.0,690.0,-8.0,-25.0,-25.0
2.024261713027954,,,-579.0,712.0,528.0,-11.0,-22.0,-28.0
2.0447378158569336,,,-303.0,927.0,611.0,-12.0,-21.0,-27.0
2.0652849674224854,,,218.0,1419.0,1038.0,-17.0,-19.0,-16.0
2.0854909420013428,,,474.0,1567.0,1254.0,-21.0,-20.0,-8.0
2.1059489250183105,,,766.0,1590.0,1358.0,-27.0,-21.0,3.0
2.1264216899871826,,,1515.0,1392.0,1076.0,-35.0,-18.0,21.0
2.1468982696533203,,,1876.0,1301.0,721.0,-35.0,-14.0,25.0
2.1633687019348145,,,2138.0,1224.0,330.0,-32.0,-8.0,27.0
2.1838715076446533,,,2216.0,743.0,269.0,-16.0,5.0,23.0
2.2045955657958984,,,2034.0,354.0,514.0,-9.0,4.0,19.0
2.2252511978149414,,,1850.0,56.0,493.0,-4.0,5.0,13.0
2.245605945587158,,,1845.0,-11.0,264.0,-2.0,10.0,-7.0
2.2661635875701904,,,1932.0,299.0,464.0,0.0,13.0,-14.0
2.286621332168579,,,2134.0,1049.0,1317.0,2.0,17.0,-15.0
2.307091474533081,,,2353.0,1241.0,1723.0,1.0,17.0,-10.0
2.3273439407348633,,,2636.0,1357.0,1951.0,-2.0,14.0,-3.0
2.3480050563812256,,,3236.0,1495.0,1830.0,-9.0,14.0,15.0
2.3684394359588623,,,3475.0,1485.0,1681.0,-12.0,17.0,24.0
2.389064311981201,,,3562.0,1449.0,1586.0,-11.0,22.0,32.0
2.4095828533172607,,,3069.0,1297.0,1774.0,-5.0,32.0,40.0
2.4302358627319336,,,2546.0,1176.0,1969.0,-3.0,35.0,42.0
2.4506499767303467,,,1801.0,1100.0,2198.0,0.0,38.0,40.0
2.4711384773254395,,,-132.0,444.0,3553.0,-2.0,32.0,30.0
2.4916486740112305,,,-908.0,-132.0,4300.0,-7.0,19.0,25.0
2.5121140480041504,,,-1196.0,-548.0,4403.0,-9.0,6.0,17.0
2.5325798988342285,,,-746.0,-725.0,3310.0,-5.0,5.0,-8.0
2.5531375408172607,,,-409.0,-686.0,2909.0,-4.0,2.0,-16.0
2.5732884407043457,,,124.0,-214.0,2229.0,-6.0,0.0,-21.0
2.5938918590545654,,,402.0,99.0,1987.0,-7.0,-1.0,-19.0
2.6143243312835693,,,696.0,354.0,1834.0,-7.0,-2.0,-15.0
2.634833574295044,,,1003.0,669.0,1612.0,-5.0,-6.0,-5.0
2.655186653137207,,,1039.0,668.0,1522.0,-5.0,-10.0,0.0
2.6758439540863037,,,987.0,632.0,1368.0,-6.0,-13.0,4.0
2.6962175369262695,,,678.0,594.0,986.0,-9.0,-16.0,6.0
2.716839075088501,,,485.0,579.0,928.0,-8.0,-16.0,5.0
2.7372782230377197,,,264.0,575.0,930.0,-6.0,-17.0,4.0
2.757788896560669,,,-234.0,489.0,979.0,-2.0,-24.0,1.0
2.7782843112945557,,,-495.0,361.0,1025.0,-1.0,-28.0,-1.0
2.7987704277038574,,,-880.0,-6.0,941.0,1.0,-30.0,-8.0
2.8192453384399414,,,-955.0,-195.0,762.0,3.0,-29.0,-13.0
2.839707612991333,,,-1054.0,-339.0,549.0,4.0,-26.0,-19.0
2.8602538108825684,,,-1407.0,-293.0,612.0,6.0,-17.0,-36.0
2.880737781524658,,,-1425.0,-181.0,1168.0,3.0,-14.0,-39.0
2.901188850402832,,,-1163.0,-78.0,1625.0,-1.0,-13.0,-33.0
2.92164945602417,,,-529.0,280.0,1372.0,-11.0,-9.0,-23.0
2.942038059234619,,,-299.0,328.0,1408.0,-13.0,-4.0,-23.0
2.9625792503356934,,,-96.0,232.0,1628.0,-10.0,-1.0,-22.0
2.9830658435821533,,,340.0,-112.0,1551.0,-6.0,4.0,-21.0
3.003575325012207,,,421.0,-226.0,1490.0,-6.0,8.0,-24.0
3.0239369869232178,,,366.0,-241.0,1651.0,-7.0,10.0,-28.0
3.0445425510406494,,,446.0,-155.0,2230.0,-9.0,11.0,-29.0
3.0649771690368652,,,735.0,-139.0,2406.0,-9.0,11.0,-25.0
3.085522174835205,,,1355.0,-114.0,2336.0,-9.0,11.0,-19.0
3.105907678604126,,,1609.0,-127.0,2209.0,-8.0,12.0,-17.0
3.1262900829315186,,,1837.0,-125.0,2105.0,-8.0,13.0,-15.0
3.1468279361724854,,,2187.0,-66.0,2001.0,-6.0,13.0,-11.0
3.1673638820648193,,,2299.0,-47.0,1996.0,-5.0,12.0,-8.0
3.188035249710083,,,2476.0,-124.0,1914.0,-5.0,9.0,-2.0
3.2084133625030518,,,2586.0,-166.0,1759.0,-4.0,8.0,0.0
3.229018211364746,,,2718.0,-219.0,1527.0,-3.0,7.0,1.0
3.2495570182800293,,,2982.0,-175.0,1038.0,-1.0,8.0,2.0
3.2703282833099365,,,3050.0,-60.0,888.0,2.0,8.0,3.0
3.29046893119812,,,3036.0,121.0,850.0,5.0,8.0,4.0
3.310925245285034,,,2710.0,577.0,1214.0,9.0,9.0,7.0
3.3313205242156982,,,2405.0,766.0,1599.0,8.0,7.0,10.0
3.3517420291900635,,,2061.0,809.0,2008.0,6.0,4.0,15.0
3.3722565174102783,,,1477.0,552.0,2149.0,-1.0,-5.0,22.0
3.3932416439056396,,,1285.0,397.0,1966.0,-2.0,-6.0,20.0
3.413682460784912,,,1106.0,285.0,1821.0,0.0,-5.0,17.0
3.4340059757232666,,,675.0,79.0,2006.0,7.0,-3.0,10.0
3.454556465148926,,,442.0,-35.0,2167.0,8.0,-2.0,9.0
3.4751317501068115,,,175.0,-350.0,2223.0,3.0,-2.0,7.0
3.4954535961151123,,,228.0,-479.0,2084.0,1.0,-2.0,4.0
3.5161449909210205,,,325.0,-515.0,1863.0,1.0,-1.0,1.0
3.5366594791412354,,,605.0,-373.0,1618.0,0.0,5.0,0.0
3.556962490081787,,,736.0,-244.0,1580.0,0.0,7.0,3.0
3.577726364135742,,,819.0,-148.0,1540.0,0.0,7.0,5.0
3.598301410675049,,,798.0,-44.0,1384.0,0.0,5.0,8.0
3.6186702251434326,,,743.0,14.0,1295.0,-1.0,5.0,7.0
3.639145851135254,,,677.0,68.0,1232.0,-2.0,5.0,6.0
3.6595520973205566,,,544.0,73.0,1218.0,-3.0,3.0,2.0
3.6799933910369873,,,518.0,54.0,1250.0,-3.0,2.0,1.0
3.7003984451293945,,,580.0,-7.0,1246.0,-3.0,1.0,-1.0
3.7211508750915527,,,631.0,-15.0,1250.0,-2.0,1.0,-2.0
3.741711378097534,,,684.0,-25.0,1301.0,-1.0,2.0,-3.0
3.761875867843628,,,714.0,-34.0,1482.0,-1.0,4.0,-2.0
3.782374382019043,,,711.0,-36.0,1589.0,-2.0,3.0,-1.0
3.8028671741485596,,,687.0,-30.0,1648.0,-2.0,3.0,0.0
3.823427677154541,,,642.0,-64.0,1704.0,-2.0,3.0,1.0
3.8438034057617188,,,642.0,-47.0,1699.0,-2.0,3.0,2.0
3.8644237518310547,,,659.0,-13.0,1720.0,-2.0,3.0,4.0
3.884904146194458,,,693.0,115.0,1708.0,-4.0,3.0,6.0
3.905456304550171,,,714.0,167.0,1649.0,-5.0,2.0,7.0
3.925813674926758,,,753.0,231.0,1594.0,-6.0,2.0,7.0
3.9461135864257812,,,747.0,338.0,1547.0,-6.0,2.0,8.0
3.966808557510376,,,684.0,339.0,1546.0,-7.0,1.0,8.0
3.9830071926116943,,,542.0,276.0,1574.0,-6.0,0.0,5.0
4.003625869750977,,,518.0,216.0,1635.0,-6.0,-1.0,3.0
4.024318218231201,,,502.0,206.0,1681.0,-6.0,-2.0,1.0
4.044965744018555,,,550.0,229.0,1804.0,-5.0,-1.0,0.0
4.06534481048584,,,598.0,267.0,1834.0,-6.0,0.0,1.0
4.085720539093018,,,656.0,303.0,1852.0,-5.0,0.0,3.0
4.106159448623657,,,679.0,488.0,1892.0,-4.0,0.0,6.0
4.126682996749878,,,625.0,557.0,1999.0,-3.0,0.0,7.0
4.1471123695373535,,,599.0,430.0,2148.0,-2.0,0.0,8.0
4.1673743724823,,,850.0,-287.0,1905.0,-3.0,0.0,7.0
4.1876380443573,,,1044.0,-619.0,1485.0,-3.0,2.0,3.0
4.208296775817871,,,1426.0,-749.0,957.0,-4.0,11.0,-6.0
4.2493531703948975,,,1724.0,-640.0,927.0,-4.0,13.0,-6.0
4.269757986068726,,,2074.0,-507.0,871.0,-4.0,13.0,-4.0
4.290306329727173,,,2741.0,-181.0,534.0,-5.0,14.0,0.0
4.310696601867676,,,2974.0,26.0,456.0,-6.0,16.0,0.0
4.331274032592773,,,3197.0,439.0,790.0,-6.0,20.0,-3.0
4.351669549942017,,,3265.0,565.0,1017.0,-6.0,19.0,-3.0
4.372274398803711,,,3366.0,657.0,1149.0,-5.0,17.0,-1.0
4.3926849365234375,,,3535.0,870.0,1033.0,-4.0,11.0,6.0
4.413214445114136,,,3439.0,1213.0,796.0,-3.0,9.0,7.0
4.4336230754852295,,,3116.0,1913.0,778.0,0.0,14.0,5.0
4.454171895980835,,,1714.0,2829.0,2895.0,9.0,25.0,6.0
4.474660873413086,,,610.0,2369.0,4695.0,4.0,13.0,18.0
4.495152950286865,,,-427.0,1652.0,5748.0,-7.0,-4.0,32.0
4.51573371887207,,,-927.0,1013.0,5587.0,-17.0,-8.0,39.0
4.560699224472046,,,-808.0,117.0,4072.0,-24.0,4.0,29.0
4.581299543380737,,,-646.0,-154.0,3362.0,-22.0,7.0,25.0
4.601662874221802,,,-107.0,-194.0,1755.0,-11.0,7.0,27.0
4.622279405593872,,,65.0,-81.0,925.0,-5.0,8.0,27.0
4.642767667770386,,,104.0,4.0,171.0,1.0,12.0,25.0
4.663026809692383,,,1.0,22.0,-444.0,6.0,17.0,20.0
4.683612585067749,,,-240.0,-67.0,-810.0,11.0,21.0,10.0
4.7041661739349365,,,-969.0,-325.0,-675.0,16.0,13.0,-10.0
4.724590301513672,,,-1261.0,-305.0,-363.0,18.0,7.0,-19.0
4.745045900344849,,,-1395.0,-199.0,21.0,18.0,2.0,-25.0
4.765605926513672,,,-1279.0,173.0,716.0,12.0,-3.0,-27.0
4.786205291748047,,,-1130.0,363.0,1060.0,7.0,-5.0,-25.0
4.8066911697387695,,,-916.0,575.0,1419.0,-1.0,-7.0,-19.0
4.827160835266113,,,1.0,881.0,1987.0,-12.0,-8.0,-1.0
4.847593069076538,,,476.0,974.0,2015.0,-13.0,-8.0,9.0
4.86817479133606,,,831.0,884.0,1941.0,-13.0,-6.0,17.0
4.889129400253296,,,1017.0,89.0,1735.0,-6.0,2.0,17.0
4.909557342529297,,,987.0,-502.0,1699.0,-2.0,4.0,11.0
4.9298975467681885,,,1082.0,-1004.0,1369.0,1.0,6.0,-1.0
4.950366973876953,,,1286.0,-926.0,1177.0,0.0,9.0,-4.0
4.970917224884033,,,1494.0,-662.0,1132.0,-1.0,11.0,-5.0
4.991240739822388,,,1908.0,54.0,1512.0,2.0,10.0,-1.0
5.024073600769043,,,2088.0,308.0,1663.0,4.0,9.0,3.0
5.044450283050537,,,2206.0,414.0,1686.0,4.0,7.0,7.0
5.064786672592163,,,2250.0,422.0,1650.0,4.0,6.0,7.0
5.0855913162231445,,,2146.0,453.0,1759.0,3.0,7.0,2.0
5.106056451797485,,,2059.0,486.0,1993.0,3.0,9.0,-2.0
5.126510143280029,,,2155.0,386.0,2525.0,-4.0,8.0,-2.0
5.147020101547241,,,2390.0,355.0,2473.0,-8.0,6.0,1.0
5.167494058609009,,,2675.0,380.0,2216.0,-12.0,6.0,2.0
5.18807053565979,,,3204.0,741.0,1466.0,-16.0,11.0,3.0
5.208534240722656,,,3411.0,1011.0,1233.0,-15.0,15.0,5.0
5.228777170181274,,,3498.0,1292.0,1114.0,-15.0,17.0,9.0
5.249457359313965,,,3334.0,1627.0,954.0,-17.0,20.0,20.0
5.2697412967681885,,,3125.0,1669.0,906.0,-18.0,19.0,26.0
5.290325880050659,,,2834.0,1757.0,890.0,-19.0,18.0,30.0
5.31073522567749,,,1991.0,2060.0,1290.0,-14.0,18.0,38.0
5.331444263458252,,,1484.0,2020.0,1858.0,-11.0,16.0,44.0
5.351921319961548,,,496.0,1158.0,2843.0,-8.0,5.0,54.0
5.372416973114014,,,130.0,463.0,2761.0,-9.0,0.0,52.0
5.392655611038208,,,-87.0,-231.0,2339.0,-6.0,2.0,41.0
5.409240484237671,,,-94.0,-1219.0,1524.0,3.0,6.0,7.0
5.429581880569458,,,-7.0,-1246.0,1241.0,7.0,7.0,-8.0
5.450127840042114,,,110.0,-1023.0,1028.0,10.0,9.0,-17.0
5.470629453659058,,,270.0,-324.0,764.0,17.0,9.0,-22.0
5.491050958633423,,,193.0,-28.0,710.0,21.0,7.0,-23.0
5.511549711227417,,,0.0,131.0,717.0,25.0,4.0,-24.0
5.531952142715454,,,-484.0,205.0,908.0,26.0,-3.0,-29.0
5.552520990371704,,,-683.0,247.0,1141.0,24.0,-5.0,-34.0
5.573040723800659,,,-753.0,226.0,1452.0,20.0,-8.0,-37.0
5.5935211181640625,,,-484.0,149.0,1558.0,7.0,-13.0,-41.0
5.614066123962402,,,-175.0,169.0,1397.0,0.0,-13.0,-44.0
5.638656139373779,,,670.0,308.0,1019.0,-7.0,-11.0,-45.0
5.659020662307739,,,1164.0,421.0,846.0,-7.0,-8.0,-41.0
5.679558277130127,,,1661.0,587.0,729.0,-8.0,-5.0,-35.0
5.700022459030151,,,2382.0,998.0,734.0,-8.0,3.0,-17.0
5.720588684082031,,,2525.0,1110.0,810.0,-8.0,6.0,-7.0
5.741125583648682,,,2432.0,1038.0,846.0,-9.0,6.0,10.0
5.761332273483276,,,2261.0,980.0,769.0,-9.0,6.0,13.0
5.7817723751068115,,,2075.0,950.0,745.0,-7.0,6.0,14.0
5.802378416061401,,,1649.0,906.0,939.0,-4.0,6.0,13.0
5.822952032089233,,,1473.0,833.0,1149.0,-3.0,5.0,13.0
5.843374967575073,,,1320.0,721.0,1369.0,-3.0,4.0,13.0
5.863927364349365,,,1095.0,437.0,1615.0,-4.0,3.0,11.0
5.884362697601318,,,1024.0,346.0,1711.0,-4.0,3.0,9.0
5.904898643493652,,,997.0,277.0,1787.0,-5.0,4.0,7.0
5.92529559135437,,,1160.0,186.0,1952.0,-6.0,5.0,5.0
5.945864200592041,,,1291.0,183.0,1948.0,-6.0,4.0,7.0
5.966330289840698,,,1396.0,185.0,1817.0,-5.0,5.0,8.0
5.986716985702515,,,1517.0,217.0,1468.0,-5.0,7.0,9.0
6.007306337356567,,,1496.0,341.0,1299.0,-5.0,9.0,8.0
6.027825593948364,,,1409.0,604.0,1274.0,-4.0,10.0,8.0
6.04831600189209,,,1363.0,664.0,1345.0,-4.0,8.0,10.0
6.068670034408569,,,1330.0,647.0,1338.0,-4.0,6.0,11.0
6.089328765869141,,,1317.0,604.0,1272.0,-4.0,4.0,12.0
6.1097776889801025,,,1230.0,468.0,1122.0,-3.0,4.0,9.0
6.126613616943359,,,1167.0,381.0,1110.0,-2.0,4.0,7.0
6.146789789199829,,,1116.0,270.0,1245.0,-2.0,4.0,4.0
6.167482614517212,,,1139.0,252.0,1307.0,-2.0,3.0,4.0
6.187956809997559,,,1157.0,274.0,1332.0,-2.0,3.0,4.0
6.2083353996276855,,,1170.0,323.0,1348.0,-1.0,5.0,3.0
6.228923320770264,,,1160.0,321.0,1398.0,-1.0,4.0,3.0
6.2494401931762695,,,1106.0,336.0,1351.0,0.0,3.0,3.0
6.269839286804199,,,1102.0,338.0,1302.0,0.0,3.0,3.0
6.29039454460144,,,1093.0,357.0,1270.0,0.0,4.0,3.0
6.310847759246826,,,1091.0,375.0,1312.0,0.0,4.0,3.0
6.331453800201416,,,1078.0,362.0,1377.0,0.0,3.0,3.0
6.351881504058838,,,1058.0,359.0,1381.0,0.0,3.0,3.0
6.372267484664917,,,1042.0,370.0,1342.0,-1.0,3.0,4.0
6.392740488052368,,,1042.0,377.0,1337.0,-1.0,3.0,4.0
6.413289546966553,,,1026.0,356.0,1329.0,-1.0,3.0,5.0
6.433592081069946,,,1037.0,282.0,1335.0,-2.0,1.0,5.0
6.45413875579834,,,1020.0,293.0,1308.0,-2.0,1.0,4.0
6.47456431388855,,,1012.0,308.0,1319.0,-2.0,1.0,4.0
6.495234251022339,,,1005.0,356.0,1378.0,-3.0,1.0,4.0
6.515568733215332,,,1004.0,394.0,1402.0,-4.0,0.0,4.0
6.536113739013672,,,975.0,456.0,1456.0,-4.0,0.0,4.0
6.556593418121338,,,968.0,447.0,1478.0,-5.0,0.0,3.0
6.5770792961120605,,,977.0,432.0,1491.0,-5.0,-1.0,3.0
6.597478628158569,,,977.0,450.0,1453.0,-4.0,-1.0,2.0
6.618007659912109,,,953.0,478.0,1460.0,-4.0,-1.0,1.0
6.63846230506897,,,940.0,507.0,1494.0,-4.0,-1.0,0.0
6.659048557281494,,,925.0,513.0,1491.0,-5.0,-2.0,0.0
6.679438829421997,,,925.0,519.0,1464.0,-5.0,-2.0,-1.0
6.700014591217041,,,935.0,529.0,1463.0,-4.0,-2.0,-2.0
6.720446348190308,,,977.0,505.0,1446.0,-3.0,-2.0,-3.0
6.740983009338379,,,1023.0,456.0,1410.0,-3.0,-1.0,-3.0
6.7614219188690186,,,1097.0,337.0,1365.0,-2.0,0.0,-5.0
6.781911134719849,,,1104.0,287.0,1344.0,-2.0,0.0,-5.0
6.802491664886475,,,1094.0,264.0,1336.0,-3.0,0.0,-6.0
6.823006868362427,,,1111.0,333.0,1371.0,-3.0,-1.0,-7.0
6.843503952026367,,,1178.0,434.0,1330.0,-4.0,-2.0,-6.0
6.863928556442261,,,1264.0,524.0,1294.0,-4.0,-3.0,-6.0
6.884366273880005,,,1511.0,517.0,1309.0,-6.0,-3.0,-4.0
6.904923439025879,,,1737.0,353.0,1235.0,-7.0,-3.0,-1.0
6.925414085388184,,,2046.0,157.0,1010.0,-8.0,-3.0,2.0
6.945876836776733,,,2685.0,-7.0,293.0,-6.0,2.0,1.0
6.966393232345581,,,2894.0,98.0,35.0,-3.0,7.0,-3.0
6.987074613571167,,,2943.0,340.0,-12.0,2.0,13.0,-7.0
7.007476806640625,,,2733.0,654.0,643.0,6.0,22.0,-12.0
7.028074741363525,,,2650.0,719.0,990.0,4.0,22.0,-12.0
7.0485169887542725,,,2878.0,950.0,1155.0,-5.0,15.0,-6.0
7.068979024887085,,,3084.0,1184.0,1010.0,-7.0,13.0,-2.0
7.089522361755371,,,3266.0,1452.0,870.0,-8.0,10.0,1.0
7.1099748611450195,,,3236.0,2191.0,713.0,-5.0,12.0,5.0
7.130547285079956,,,2999.0,2461.0,923.0,-3.0,18.0,4.0
7.151036739349365,,,2697.0,2529.0,1440.0,-2.0,22.0,3.0
7.17143177986145,,,2047.0,2160.0,3116.0,-8.0,17.0,7.0
7.192101240158081,,,1757.0,1961.0,3965.0,-12.0,14.0,11.0
7.208472013473511,,,1574.0,1809.0,4571.0,-14.0,13.0,15.0
7.228799343109131,,,1480.0,1773.0,4913.0,-17.0,12.0,22.0
7.249512434005737,,,129.0,-159.0,405.0,1.0,-11.0,8.0
7.269796848297119,,,193.0,-206.0,133.0,7.0,-5.0,4.0
7.294437408447266,,,62.0,-286.0,275.0,12.0,-1.0,-2.0
7.314998626708984,,,-248.0,-320.0,632.0,14.0,1.0,-10.0
7.335663318634033,,,-499.0,-302.0,1118.0,13.0,1.0,-17.0
7.355671167373657,,,-442.0,-173.0,1576.0,9.0,-2.0,-19.0
7.376230955123901,,,-200.0,66.0,1600.0,5.0,-5.0,-18.0
7.396751403808594,,,44.0,288.0,1253.0,0.0,-6.0,-17.0
7.417448997497559,,,230.0,514.0,871.0,-7.0,-5.0,-19.0
7.437812805175781,,,693.0,943.0,698.0,-7.0,1.0,-24.0
7.462447643280029,,,1002.0,1046.0,875.0,-5.0,2.0,-24.0
7.482993841171265,,,1275.0,1091.0,1014.0,-4.0,3.0,-21.0
7.5035176277160645,,,1513.0,1057.0,1081.0,-4.0,4.0,-19.0
7.524091958999634,,,1750.0,974.0,1078.0,-7.0,6.0,-20.0
7.544423580169678,,,2193.0,1103.0,927.0,-11.0,8.0,-23.0
7.564970016479492,,,2374.0,1381.0,932.0,-12.0,11.0,-24.0
7.5854692459106445,,,2523.0,1709.0,1045.0,-11.0,14.0,-23.0
7.605700492858887,,,2845.0,2279.0,1610.0,-13.0,15.0,-14.0
7.626239538192749,,,3000.0,2472.0,1846.0,-16.0,14.0,-7.0
7.64676833152771,,,3144.0,2577.0,1915.0,-20.0,14.0,0.0
7.667302370071411,,,3296.0,2656.0,1793.0,-26.0,15.0,9.0
7.68747091293335,,,3242.0,2749.0,1859.0,-23.0,18.0,12.0
7.70806884765625,,,3104.0,2807.0,2166.0,-18.0,21.0,15.0
7.724448919296265,,,2837.0,2352.0,3143.0,-11.0,20.0,29.0
7.744904279708862,,,2747.0,1844.0,3274.0,-10.0,18.0,37.0
7.765447378158569,,,2327.0,994.0,2988.0,-5.0,22.0,31.0
7.786130905151367,,,2050.0,764.0,2947.0,-2.0,23.0,25.0
7.806640148162842,,,1808.0,765.0,2866.0,-1.0,25.0,22.0
7.82709264755249,,,1539.0,1203.0,2601.0,-4.0,28.0,29.0
7.847411394119263,,,1436.0,1416.0,2364.0,-5.0,26.0,38.0
7.8679039478302,,,1205.0,1491.0,1888.0,-6.0,21.0,46.0
7.888314485549927,,,690.0,1145.0,659.0,-6.0,14.0,47.0
7.908688068389893,,,461.0,1043.0,182.0,-3.0,12.0,41.0
7.929182767868042,,,221.0,1029.0,-90.0,1.0,11.0,36.0
7.949886083602905,,,-340.0,853.0,195.0,6.0,7.0,31.0
7.9703826904296875,,,-539.0,578.0,616.0,5.0,4.0,30.0
7.99090051651001,,,-675.0,218.0,863.0,4.0,-1.0,29.0
8.011277914047241,,,-700.0,-159.0,831.0,3.0,-5.0,24.0
8.031853199005127,,,-636.0,-457.0,617.0,3.0,-5.0,16.0
8.052477836608887,,,-399.0,-825.0,350.0,8.0,-4.0,-1.0
8.07301378250122,,,-280.0,-871.0,342.0,11.0,-4.0,-7.0
8.093477964401245,,,-183.0,-781.0,398.0,13.0,-3.0,-12.0
8.11397123336792,,,192.0,-384.0,693.0,16.0,-3.0,-13.0
8.134387969970703,,,322.0,-189.0,727.0,17.0,-4.0,-14.0
8.158863544464111,,,601.0,59.0,681.0,19.0,-5.0,-19.0
8.179237365722656,,,676.0,187.0,698.0,20.0,-4.0,-25.0
8.19988203048706,,,838.0,239.0,813.0,19.0,-2.0,-30.0
8.22023892402649,,,1415.0,348.0,984.0,13.0,-2.0,-35.0
8.240841150283813,,,1708.0,575.0,954.0,10.0,0.0,-35.0
8.261196613311768,,,1969.0,914.0,957.0,7.0,4.0,-34.0
8.281802654266357,,,2292.0,1713.0,1260.0,3.0,10.0,-26.0
8.302148818969727,,,2338.0,2109.0,1503.0,2.0,13.0,-18.0
8.32267141342163,,,2320.0,2469.0,1786.0,0.0,13.0,-7.0
8.343054294586182,,,2226.0,2738.0,2286.0,-3.0,9.0,17.0
8.363758563995361,,,2111.0,2584.0,2286.0,-5.0,4.0,27.0
8.384148597717285,,,1925.0,2003.0,1832.0,-9.0,1.0,29.0
8.404747247695923,,,1836.0,1779.0,1541.0,-10.0,1.0,26.0
8.425078392028809,,,1789.0,1643.0,1333.0,-9.0,4.0,21.0
8.44149661064148,,,1777.0,1466.0,1349.0,-5.0,8.0,14.0
8.461933374404907,,,1701.0,1449.0,1427.0,-4.0,9.0,12.0
8.482401132583618,,,1564.0,1450.0,1569.0,-4.0,10.0,10.0
8.502869129180908,,,1171.0,1456.0,2051.0,-7.0,9.0,9.0
8.52343487739563,,,961.0,1492.0,2300.0,-9.0,9.0,11.0
8.544044971466064,,,921.0,1474.0,2494.0,-10.0,8.0,16.0
8.564554929733276,,,1010.0,1440.0,2182.0,-9.0,3.0,26.0
8.58506155014038,,,884.0,1389.0,1849.0,-6.0,6.0,24.0
8.605870246887207,,,502.0,1056.0,1787.0,-4.0,11.0,17.0
8.62647795677185,,,382.0,972.0,1902.0,-5.0,9.0,17.0
8.646724939346313,,,352.0,1022.0,1860.0,-6.0,6.0,18.0
8.667295217514038,,,342.0,1340.0,1411.0,-7.0,5.0,26.0
8.687865018844604,,,319.0,1447.0,1189.0,-6.0,6.0,31.0
8.708218574523926,,,332.0,1419.0,1024.0,-6.0,7.0,36.0
8.728737354278564,,,257.0,1177.0,818.0,-4.0,9.0,40.0
8.749250411987305,,,201.0,1038.0,787.0,-3.0,9.0,40.0
8.769770383834839,,,133.0,913.0,737.0,-1.0,8.0,39.0
8.79019832611084,,,-94.0,548.0,540.0,1.0,6.0,35.0
8.810799360275269,,,-179.0,264.0,472.0,1.0,4.0,30.0
8.831361532211304,,,-283.0,-14.0,426.0,1.0,2.0,22.0
8.851512908935547,,,-327.0,-377.0,343.0,3.0,-4.0,4.0
8.872093439102173,,,-304.0,-430.0,325.0,5.0,-6.0,-5.0
8.892463684082031,,,-286.0,-382.0,391.0,6.0,-8.0,-13.0
8.91323208808899,,,-287.0,-248.0,549.0,6.0,-9.0,-20.0
8.933504819869995,,,-274.0,-37.0,805.0,6.0,-9.0,-24.0
8.954029083251953,,,-147.0,409.0,1454.0,3.0,-12.0,-26.0
8.97428560256958,,,-11.0,612.0,1666.0,0.0,-13.0,-25.0
8.994662761688232,,,118.0,871.0,1851.0,-3.0,-13.0,-25.0
9.015052080154419,,,642.0,1482.0,2399.0,-9.0,-9.0,-19.0
9.035615921020508,,,1028.0,1723.0,2345.0,-13.0,-8.0,-11.0
9.055994510650635,,,1423.0,1964.0,2025.0,-17.0,-6.0,-2.0
9.076633214950562,,,2011.0,2379.0,1251.0,-9.0,1.0,7.0
9.09715747833252,,,2089.0,2364.0,984.0,-2.0,3.0,10.0
9.117616415023804,,,1717.0,1985.0,832.0,5.0,5.0,7.0
9.1381094455719,,,1433.0,1755.0,996.0,4.0,4.0,3.0
9.15853214263916,,,1187.0,1576.0,1208.0,2.0,1.0,-2.0
9.178992986679077,,,983.0,1537.0,1405.0,-3.0,-4.0,-11.0
9.199537754058838,,,1016.0,1687.0,1354.0,-4.0,-5.0,-13.0
9.219995975494385,,,1092.0,1896.0,1254.0,-5.0,-4.0,-12.0
9.24115252494812,,,1014.0,2286.0,1207.0,-6.0,3.0,-2.0
9.261290550231934,,,788.0,2235.0,1451.0,-5.0,5.0,4.0
9.28188681602478,,,560.0,1948.0,1826.0,-4.0,4.0,11.0
9.30234670639038,,,267.0,1161.0,2455.0,-3.0,-2.0,15.0
9.32279634475708,,,294.0,713.0,2529.0,-2.0,-4.0,11.0
9.343191623687744,,,411.0,310.0,2422.0,-3.0,-5.0,5.0
9.363762855529785,,,948.0,-83.0,1998.0,-3.0,-4.0,-10.0
9.384164094924927,,,1293.0,2.0,1738.0,-2.0,-3.0,-14.0
9.404984474182129,,,1950.0,615.0,1094.0,2.0,-1.0,-11.0
9.42532205581665,,,2196.0,997.0,759.0,4.0,0.0,-8.0
9.445815324783325,,,2322.0,1336.0,441.0,6.0,1.0,-7.0
9.466322660446167,,,2280.0,1761.0,147.0,7.0,7.0,-9.0
9.486852884292603,,,2109.0,1871.0,234.0,6.0,9.0,-12.0
9.507213354110718,,,1908.0,1937.0,490.0,3.0,10.0,-14.0
9.523657321929932,,,1582.0,2112.0,1192.0,-5.0,7.0,-12.0
9.54416298866272,,,1501.0,2277.0,1384.0,-9.0,4.0,-6.0
9.564810037612915,,,1440.0,2466.0,1442.0,-12.0,2.0,1.0
9.585226774215698,,,1179.0,2691.0,1414.0,-15.0,4.0,14.0
9.605777025222778,,,656.0,2761.0,1462.0,-14.0,8.0,14.0
9.626280307769775,,,-350.0,2077.0,3098.0,-9.0,14.0,22.0
9.646596670150757,,,-481.0,1201.0,3759.0,-13.0,1.0,32.0
9.667293787002563,,,-611.0,668.0,3433.0,-17.0,-3.0,32.0
9.687797784805298,,,-552.0,84.0,2831.0,-12.0,12.0,8.0
9.708279371261597,,,-423.0,-161.0,2834.0,-11.0,9.0,6.0
9.728732585906982,,,-311.0,-241.0,2528.0,-10.0,9.0,6.0
9.749229192733765,,,-105.0,80.0,1892.0,-7.0,10.0,4.0
9.769644975662231,,,-135.0,400.0,1619.0,-5.0,9.0,6.0
9.790064573287964,,,-178.0,708.0,1376.0,-3.0,9.0,10.0
9.810353755950928,,,-343.0,1015.0,1074.0,0.0,7.0,18.0
9.831038236618042,,,-372.0,895.0,969.0,1.0,5.0,20.0
9.851409912109375,,,-321.0,671.0,825.0,2.0,4.0,19.0
9.871966123580933,,,-46.0,158.0,530.0,7.0,1.0,14.0
9.89236044883728,,,182.0,-75.0,396.0,9.0,0.0,12.0
9.912747383117676,,,436.0,-363.0,112.0,12.0,0.0,4.0
9.933211326599121,,,378.0,-443.0,162.0,14.0,1.0,-4.0
9.953672885894775,,,270.0,-447.0,506.0,16.0,1.0,-11.0
9.97403860092163,,,218.0,-193.0,1533.0,15.0,-3.0,-21.0
9.99466848373413,,,463.0,28.0,1832.0,10.0,-6.0,-21.0
10.015016794204712,,,753.0,303.0,1827.0,4.0,-8.0,-20.0
10.035656929016113,,,1397.0,1119.0,1537.0,-6.0,0.0,-23.0
10.056129217147827,,,1719.0,1621.0,1533.0,-7.0,4.0,-19.0
10.076942443847656,,,1911.0,2087.0,1633.0,-6.0,8.0,-13.0
10.09746789932251,,,1946.0,2547.0,2046.0,-4.0,12.0,1.0
10.117991924285889,,,1877.0,2595.0,2139.0,-5.0,12.0,7.0
10.138469934463501,,,1847.0,2528.0,2069.0,-9.0,8.0,12.0
10.158893585205078,,,1900.0,2454.0,1996.0,-9.0,7.0,11.0
10.179266214370728,,,1973.0,2408.0,1889.0,-10.0,7.0,10.0
10.200080871582031,,,2096.0,2479.0,1644.0,-9.0,10.0,8.0
10.220478534698486,,,2134.0,2490.0,1639.0,-7.0,12.0,8.0
10.2407968044281,,,2150.0,2427.0,1670.0,-5.0,13.0,10.0
10.261257886886597,,,1985.0,2173.0,1738.0,-3.0,12.0,11.0
10.2815682888031,,,1809.0,2037.0,1864.0,-1.0,13.0,10.0
10.301944017410278,,,1634.0,1867.0,2021.0,1.0,12.0,12.0
10.322499513626099,,,1195.0,1501.0,1965.0,3.0,8.0,14.0
10.34295916557312,,,899.0,1284.0,1924.0,4.0,6.0,12.0
10.363507270812988,,,596.0,1031.0,1993.0,6.0,5.0,9.0
10.383961915969849,,,133.0,663.0,2256.0,6.0,-2.0,7.0
10.404421091079712,,,-39.0,580.0,2271.0,4.0,-4.0,8.0
10.424839973449707,,,-191.0,428.0,2064.0,-1.0,-7.0,9.0
10.445538997650146,,,-251.0,372.0,1870.0,-2.0,-7.0,10.0
10.465888261795044,,,-304.0,295.0,1674.0,-3.0,-7.0,11.0
10.486488342285156,,,-432.0,-102.0,1487.0,-2.0,-6.0,10.0
10.506890296936035,,,-456.0,-365.0,1514.0,-1.0,-7.0,8.0
10.527488470077515,,,-428.0,-585.0,1463.0,-1.0,-9.0,6.0
10.547829389572144,,,-174.0,-732.0,1110.0,1.0,-11.0,1.0
10.568475484848022,,,2.0,-671.0,918.0,3.0,-11.0,-1.0
10.588818788528442,,,203.0,-566.0,725.0,4.0,-11.0,-4.0
10.605236291885376,,,476.0,-117.0,329.0,9.0,-8.0,-11.0
10.62566614151001,,,511.0,206.0,396.0,12.0,-4.0,-17.0
10.646154642105103,,,841.0,863.0,1061.0,10.0,-2.0,-14.0
10.670664310455322,,,1188.0,1188.0,1005.0,2.0,-3.0,-8.0
10.69122838973999,,,1558.0,1570.0,731.0,-6.0,-1.0,-3.0
10.711673498153687,,,1704.0,2574.0,352.0,-10.0,12.0,-1.0
10.732270240783691,,,1536.0,2936.0,580.0,-5.0,17.0,3.0
10.752668380737305,,,1261.0,3042.0,936.0,-2.0,16.0,12.0
10.77328085899353,,,256.0,2699.0,1555.0,1.0,11.0,23.0
10.793637037277222,,,-412.0,2227.0,2120.0,0.0,9.0,25.0
10.814209938049316,,,-1040.0,571.0,3630.0,-8.0,-1.0,25.0
10.834883451461792,,,-869.0,-45.0,3522.0,-15.0,-6.0,20.0
10.855451345443726,,,-575.0,-225.0,2862.0,-18.0,-1.0,12.0
10.875783681869507,,,-177.0,-186.0,2029.0,-14.0,9.0,-4.0
10.896466970443726,,,-66.0,-6.0,2050.0,-11.0,10.0,-3.0
10.916890859603882,,,-28.0,247.0,1992.0,-8.0,11.0,3.0
10.93744683265686,,,-73.0,249.0,1770.0,-3.0,11.0,12.0
10.958324909210205,,,-117.0,-79.0,1666.0,-1.0,10.0,10.0
10.978441715240479,,,-114.0,-435.0,1505.0,0.0,9.0,4.0
10.9989755153656,,,-53.0,-779.0,1239.0,0.0,8.0,-15.0
11.019490957260132,,,-15.0,-682.0,1222.0,0.0,8.0,-21.0
11.040083646774292,,,156.0,-200.0,1207.0,-2.0,6.0,-21.0
11.060495853424072,,,251.0,36.0,1163.0,-3.0,5.0,-18.0
11.080971717834473,,,341.0,246.0,1131.0,-3.0,4.0,-16.0
11.10134744644165,,,539.0,531.0,1121.0,0.0,2.0,-10.0
11.121947050094604,,,636.0,613.0,1151.0,1.0,1.0,-8.0
11.14249300956726,,,644.0,663.0,1246.0,2.0,2.0,-8.0
11.162990093231201,,,569.0,717.0,1816.0,2.0,2.0,-12.0
11.183418035507202,,,495.0,798.0,2188.0,2.0,0.0,-13.0
11.203971862792969,,,549.0,916.0,2614.0,2.0,-1.0,-14.0
11.224464178085327,,,1116.0,1008.0,3011.0,1.0,-7.0,-9.0
11.244945526123047,,,1530.0,1017.0,2732.0,1.0,-9.0,-7.0
11.265322208404541,,,1880.0,1100.0,2253.0,3.0,-9.0,-8.0
11.285873651504517,,,2147.0,1400.0,1448.0,17.0,-4.0,-19.0
11.306188583374023,,,2080.0,1495.0,1331.0,25.0,-2.0,-26.0
11.322793245315552,,,1793.0,1365.0,1520.0,36.0,1.0,-39.0
11.342997789382935,,,1723.0,1216.0,1645.0,38.0,0.0,-44.0
11.363611936569214,,,1732.0,1084.0,1722.0,38.0,-7.0,-45.0
11.384130716323853,,,1629.0,1205.0,1510.0,39.0,-23.0,-48.0
11.4047372341156,,,1586.0,1452.0,1470.0,42.0,-28.0,-50.0
11.425205707550049,,,1564.0,1683.0,1631.0,47.0,-33.0,-50.0
11.445643901824951,,,1590.0,1888.0,2138.0,53.0,-44.0,-45.0
11.466085195541382,,,1630.0,1750.0,2255.0,56.0,-45.0,-43.0
11.486763000488281,,,1567.0,1534.0,2211.0,58.0,-45.0,-43.0
11.507093667984009,,,1318.0,1715.0,2415.0,69.0,-49.0,-47.0
11.527676820755005,,,1263.0,1936.0,2615.0,77.0,-52.0,-46.0
11.548123121261597,,,1054.0,1845.0,2585.0,82.0,-59.0,-41.0
11.56860065460205,,,914.0,1611.0,2535.0,80.0,-60.0,-39.0
11.589133977890015,,,869.0,1327.0,2564.0,77.0,-61.0,-38.0
11.609915971755981,,,732.0,886.0,2464.0,72.0,-63.0,-34.0
11.629979848861694,,,493.0,731.0,2323.0,69.0,-57.0,-34.0
11.650674819946289,,,129.0,573.0,2228.0,66.0,-47.0,-33.0
11.67078447341919,,,-654.0,-103.0,2084.0,59.0,-33.0,-26.0
11.69146203994751,,,-980.0,-476.0,1946.0,54.0,-27.0,-21.0
11.711869239807129,,,-1230.0,-890.0,1728.0,49.0,-20.0,-14.0
11.732372999191284,,,-1257.0,-2340.0,884.0,33.0,-16.0,9.0
11.752973556518555,,,-1318.0,-3062.0,72.0,21.0,-12.0,19.0
11.773238897323608,,,-1699.0,-3458.0,-874.0,11.0,0.0,23.0
11.793466567993164,,,-3121.0,-3702.0,-1806.0,5.0,38.0,23.0
11.814007759094238,,,-3541.0,-3885.0,-1520.0,9.0,45.0,23.0
11.834550619125366,,,-3514.0,-3777.0,-1.0,12.0,28.0,24.0
11.85510802268982,,,-3080.0,-3687.0,870.0,9.0,20.0,28.0
11.875441789627075,,,-2302.0,-3677.0,1575.0,5.0,5.0,30.0
11.896038293838501,,,-1122.0,-2689.0,2598.0,-4.0,-25.0,23.0
11.91645622253418,,,-723.0,-2071.0,2869.0,-6.0,-33.0,21.0
11.937027931213379,,,-442.0,-1543.0,2759.0,-9.0,-34.0,19.0
11.957445859909058,,,-388.0,-792.0,1953.0,-11.0,-30.0,18.0
11.978069067001343,,,-801.0,-327.0,1279.0,-8.0,-30.0,21.0
11.998523712158203,,,-1166.0,180.0,370.0,-3.0,-27.0,23.0
12.019063472747803,,,-1217.0,794.0,29.0,15.0,-3.0,8.0
12.039470911026001,,,-1088.0,427.0,603.0,19.0,-4.0,5.0
12.060052633285522,,,-673.0,-318.0,1089.0,7.0,-31.0,-5.0
12.08046579360962,,,-316.0,-152.0,1107.0,-2.0,-41.0,-13.0
12.100932836532593,,,124.0,213.0,1228.0,-8.0,-49.0,-19.0
12.121468782424927,,,917.0,868.0,1546.0,-15.0,-65.0,-29.0
12.142273187637329,,,1174.0,1203.0,1712.0,-14.0,-66.0,-34.0
12.162869453430176,,,1383.0,1422.0,1939.0,-12.0,-62.0,-36.0
12.183398246765137,,,1552.0,1278.0,2134.0,-8.0,-42.0,-35.0
12.20380687713623,,,1473.0,927.0,1945.0,-7.0,-30.0,-29.0
12.224397659301758,,,1342.0,373.0,1714.0,-7.0,-20.0,-23.0
12.245017290115356,,,676.0,-747.0,1531.0,0.0,-3.0,-16.0
12.265139102935791,,,191.0,-1241.0,1666.0,7.0,2.0,-11.0
12.285472393035889,,,-270.0,-1659.0,1714.0,11.0,1.0,-6.0
12.306019306182861,,,-659.0,-2068.0,1042.0,2.0,2.0,0.0
12.326517343521118,,,-589.0,-2088.0,746.0,-8.0,4.0,2.0
12.346832275390625,,,-554.0,-1957.0,932.0,-12.0,6.0,3.0
12.367706298828125,,,-564.0,-1966.0,1210.0,-6.0,6.0,0.0
12.387770175933838,,,-588.0,-1964.0,1453.0,1.0,7.0,-4.0
12.404218912124634,,,-559.0,-2174.0,1637.0,5.0,8.0,-9.0
12.42466926574707,,,-588.0,-2132.0,1818.0,3.0,7.0,-11.0
12.445120096206665,,,-589.0,-1807.0,2193.0,2.0,4.0,-11.0
12.465575218200684,,,-443.0,-815.0,2443.0,1.0,1.0,-4.0
12.486124515533447,,,-349.0,-561.0,2264.0,-3.0,3.0,0.0
12.50656008720398,,,-332.0,-477.0,2125.0,-6.0,5.0,5.0
12.52701711654663,,,-432.0,-487.0,1782.0,-5.0,4.0,11.0
12.547486305236816,,,-411.0,-528.0,1534.0,-4.0,3.0,9.0
12.568089723587036,,,-337.0,-610.0,1006.0,-6.0,0.0,5.0
12.58846402168274,,,-365.0,-599.0,757.0,-9.0,-1.0,2.0
12.609074115753174,,,-366.0,-534.0,702.0,-10.0,-1.0,-1.0
12.629476070404053,,,-227.0,-290.0,1317.0,-5.0,-4.0,-1.0
12.650056838989258,,,-166.0,-159.0,1617.0,-3.0,-5.0,2.0
12.670427560806274,,,-97.0,-50.0,1703.0,-4.0,-4.0,4.0
12.691027879714966,,,19.0,337.0,1684.0,-9.0,2.0,5.0
12.71153450012207,,,70.0,514.0,1714.0,-8.0,3.0,4.0
12.732009410858154,,,173.0,476.0,1841.0,-5.0,2.0,3.0
12.752434015274048,,,191.0,148.0,1993.0,-1.0,0.0,7.0
12.773070573806763,,,233.0,96.0,1952.0,-2.0,-1.0,7.0
12.793403625488281,,,383.0,63.0,1987.0,-3.0,-1.0,6.0
12.814056396484375,,,463.0,116.0,2486.0,2.0,-1.0,13.0
12.834409236907959,,,341.0,162.0,2409.0,2.0,3.0,20.0
12.855035781860352,,,-42.0,119.0,1575.0,-2.0,6.0,21.0
12.875540018081665,,,-145.0,-58.0,1179.0,-2.0,2.0,13.0
12.89603328704834,,,-143.0,-245.0,875.0,-1.0,-3.0,5.0
12.916723012924194,,,-147.0,-237.0,838.0,0.0,-4.0,-12.0
12.937482833862305,,,-75.0,-127.0,1090.0,-2.0,-4.0,-13.0
12.957743883132935,,,45.0,78.0,1345.0,-4.0,-2.0,-9.0
12.978371620178223,,,272.0,429.0,1717.0,-4.0,3.0,-1.0
12.998699188232422,,,357.0,461.0,1818.0,-2.0,4.0,1.0
13.019193649291992,,,421.0,346.0,1864.0,0.0,3.0,2.0
13.03968358039856,,,252.0,-104.0,1728.0,-1.0,2.0,1.0
13.060084581375122,,,92.0,-314.0,1599.0,-3.0,2.0,-1.0
13.080593585968018,,,44.0,-260.0,1579.0,-4.0,-2.0,-3.0
13.101168394088745,,,150.0,-88.0,1639.0,-3.0,-2.0,-2.0
13.121631860733032,,,186.0,43.0,1693.0,-3.0,-1.0,-1.0
13.142340421676636,,,166.0,102.0,1674.0,-4.0,1.0,1.0
13.162800073623657,,,204.0,248.0,1738.0,-4.0,0.0,1.0
13.183310270309448,,,272.0,332.0,1904.0,-3.0,-2.0,2.0
13.203919887542725,,,247.0,381.0,1836.0,-5.0,-1.0,3.0
13.224266767501831,,,223.0,441.0,1739.0,-5.0,1.0,4.0
13.244626522064209,,,229.0,465.0,1701.0,-4.0,2.0,4.0
13.26528000831604,,,236.0,283.0,1614.0,-2.0,2.0,2.0
13.285682916641235,,,247.0,174.0,1563.0,-3.0,0.0,1.0
13.305999994277954,,,347.0,306.0,1566.0,-3.0,1.0,0.0
13.326534986495972,,,398.0,391.0,1690.0,-2.0,2.0,1.0
13.346900939941406,,,385.0,398.0,1739.0,-2.0,3.0,4.0
13.367558240890503,,,283.0,202.0,1542.0,-2.0,3.0,4.0
13.387815952301025,,,280.0,172.0,1421.0,-2.0,2.0,0.0
13.408464193344116,,,289.0,183.0,1371.0,-2.0,1.0,-2.0
13.428972721099854,,,216.0,186.0,1494.0,-3.0,2.0,-2.0
13.449501752853394,,,178.0,156.0,1557.0,-3.0,3.0,-2.0
13.470147132873535,,,221.0,188.0,1612.0,-4.0,2.0,-2.0
13.490543365478516,,,262.0,258.0,1610.0,-5.0,2.0,-2.0
13.510841369628906,,,271.0,294.0,1612.0,-6.0,2.0,-1.0
13.53153133392334,,,237.0,308.0,1589.0,-5.0,2.0,-3.0
13.551896572113037,,,275.0,338.0,1609.0,-4.0,2.0,-5.0
13.572516918182373,,,326.0,361.0,1674.0,-3.0,2.0,-6.0
13.592944145202637,,,368.0,349.0,1849.0,-3.0,2.0,-3.0
13.613475322723389,,,362.0,369.0,1905.0,-3.0,3.0,-1.0
13.633735656738281,,,373.0,419.0,1894.0,-3.0,3.0,2.0
13.654470205307007,,,363.0,436.0,1682.0,-2.0,4.0,2.0
13.67493224143982,,,320.0,391.0,1571.0,-2.0,3.0,0.0
13.695573329925537,,,269.0,352.0,1514.0,-2.0,2.0,-2.0
13.715925216674805,,,268.0,351.0,1552.0,-2.0,2.0,-2.0
13.736552953720093,,,250.0,374.0,1544.0,-2.0,2.0,-1.0
13.75692105293274,,,283.0,385.0,1501.0,-3.0,3.0,-1.0
13.777409076690674,,,298.0,375.0,1554.0,-3.0,3.0,-1.0
13.797746896743774,,,304.0,371.0,1620.0,-2.0,3.0,-1.0
13.81818699836731,,,328.0,416.0,1620.0,-3.0,4.0,1.0
13.838509559631348,,,346.0,441.0,1548.0,-4.0,4.0,2.0
13.859155178070068,,,355.0,419.0,1475.0,-5.0,5.0,2.0
13.879588842391968,,,344.0,323.0,1510.0,-4.0,3.0,-1.0
13.900166034698486,,,362.0,284.0,1616.0,-4.0,2.0,-1.0
13.920874834060669,,,414.0,298.0,1665.0,-5.0,1.0,0.0
13.941438436508179,,,522.0,483.0,1715.0,-5.0,1.0,0.0
13.961787462234497,,,531.0,606.0,1786.0,-3.0,2.0,0.0
13.982283592224121,,,448.0,597.0,1806.0,-3.0,3.0,4.0
14.00265645980835,,,315.0,560.0,1783.0,-3.0,3.0,4.0
14.023223638534546,,,220.0,513.0,1797.0,-4.0,1.0,4.0
14.043628692626953,,,159.0,592.0,1777.0,-3.0,-2.0,1.0
14.064067363739014,,,159.0,687.0,1767.0,-3.0,-3.0,-1.0
14.084867477416992,,,195.0,778.0,1777.0,-2.0,-3.0,-3.0
14.105334043502808,,,388.0,865.0,1789.0,1.0,-1.0,-2.0
14.125732183456421,,,473.0,861.0,1725.0,2.0,1.0,-1.0
14.146274089813232,,,529.0,812.0,1628.0,3.0,2.0,-1.0
14.16646432876587,,,603.0,489.0,1368.0,2.0,1.0,0.0
14.187243700027466,,,606.0,281.0,1260.0,2.0,0.0,-2.0
14.203637599945068,,,592.0,10.0,1138.0,0.0,-2.0,-9.0
14.224186897277832,,,617.0,-2.0,1149.0,-1.0,-2.0,-10.0
14.244657039642334,,,653.0,28.0,1248.0,-2.0,-2.0,-9.0
14.265153408050537,,,637.0,169.0,1457.0,-1.0,-1.0,-5.0
14.285608053207397,,,580.0,254.0,1534.0,-1.0,0.0,-4.0
14.30624771118164,,,518.0,297.0,1604.0,-2.0,1.0,-2.0
14.326384544372559,,,395.0,363.0,1614.0,-4.0,0.0,-1.0
14.346943140029907,,,415.0,452.0,1576.0,-5.0,-1.0,-1.0
14.367496490478516,,,440.0,575.0,1577.0,-4.0,-2.0,-2.0
14.387997150421143,,,383.0,807.0,1641.0,-1.0,1.0,0.0
14.408437252044678,,,357.0,868.0,1553.0,-2.0,2.0,1.0
14.428845643997192,,,352.0,882.0,1461.0,-2.0,3.0,1.0
14.449194431304932,,,347.0,845.0,1527.0,-1.0,2.0,1.0
14.46962857246399,,,330.0,795.0,1489.0,-1.0,2.0,2.0
14.49028730392456,,,346.0,665.0,1443.0,-2.0,3.0,2.0
14.510820150375366,,,406.0,614.0,1464.0,-2.0,3.0,1.0
14.531375885009766,,,420.0,545.0,1499.0,-1.0,3.0,2.0
14.551852703094482,,,433.0,382.0,1416.0,-3.0,4.0,3.0
14.572257995605469,,,455.0,342.0,1384.0,-3.0,4.0,2.0
14.592791318893433,,,477.0,307.0,1409.0,-3.0,4.0,1.0
14.61359429359436,,,549.0,279.0,1513.0,-3.0,2.0,2.0
14.63377594947815,,,567.0,358.0,1475.0,-4.0,3.0,3.0
14.654274702072144,,,602.0,443.0,1383.0,-4.0,3.0,4.0
14.67453932762146,,,603.0,492.0,1271.0,-4.0,4.0,1.0
14.695227861404419,,,523.0,475.0,1322.0,-3.0,3.0,-1.0
14.715664863586426,,,332.0,439.0,1600.0,-1.0,1.0,-3.0
14.736208200454712,,,295.0,502.0,1716.0,-2.0,0.0,-2.0
14.756821393966675,,,299.0,614.0,1773.0,-3.0,1.0,0.0
14.777355432510376,,,343.0,808.0,1824.0,-5.0,4.0,7.0
14.797697067260742,,,319.0,846.0,1811.0,-5.0,4.0,10.0
14.818116664886475,,,264.0,855.0,1747.0,-3.0,4.0,10.0
14.838693141937256,,,264.0,748.0,1598.0,-1.0,1.0,6.0
14.859143257141113,,,313.0,721.0,1511.0,-1.0,1.0,4.0
14.879630088806152,,,370.0,745.0,1510.0,-2.0,1.0,3.0
14.900289535522461,,,473.0,782.0,1516.0,-3.0,2.0,6.0
14.920442342758179,,,467.0,730.0,1507.0,-3.0,3.0,7.0
14.940953254699707,,,443.0,605.0,1552.0,-3.0,3.0,6.0
14.96169924736023,,,438.0,466.0,1563.0,-5.0,0.0,6.0
14.982123374938965,,,451.0,539.0,1545.0,-6.0,0.0,4.0
15.002640962600708,,,478.0,750.0,1533.0,-5.0,2.0,3.0
15.023080825805664,,,458.0,778.0,1518.0,-4.0,2.0,2.0
15.043468475341797,,,415.0,749.0,1507.0,-4.0,3.0,1.0
15.064237117767334,,,400.0,655.0,1578.0,-5.0,1.0,1.0
15.084696292877197,,,451.0,662.0,1576.0,-4.0,1.0,1.0
15.105140686035156,,,495.0,691.0,1564.0,-4.0,1.0,0.0
15.125503063201904,,,496.0,638.0,1649.0,-3.0,3.0,1.0
15.14598298072815,,,488.0,624.0,1660.0,-4.0,3.0,2.0
15.166477680206299,,,521.0,623.0,1652.0,-5.0,3.0,4.0
15.187039852142334,,,515.0,578.0,1567.0,-5.0,3.0,4.0
15.207601308822632,,,481.0,553.0,1520.0,-5.0,2.0,2.0
15.228227138519287,,,440.0,622.0,1628.0,-5.0,1.0,0.0
15.248440027236938,,,446.0,685.0,1656.0,-5.0,1.0,1.0
15.269139528274536,,,462.0,740.0,1607.0,-6.0,1.0,1.0
15.285599708557129,,,475.0,852.0,1672.0,-4.0,1.0,0.0
15.305897951126099,,,516.0,899.0,1754.0,-4.0,1.0,1.0
15.326322078704834,,,559.0,910.0,1730.0,-4.0,2.0,2.0
15.347017765045166,,,566.0,851.0,1653.0,-4.0,3.0,1.0
15.36744213104248,,,536.0,821.0,1629.0,-3.0,3.0,1.0
15.387976884841919,,,519.0,794.0,1581.0,-3.0,3.0,1.0
15.408350706100464,,,527.0,725.0,1495.0,-4.0,3.0,1.0
15.428898572921753,,,506.0,692.0,1468.0,-3.0,4.0,0.0
15.44941234588623,,,490.0,664.0,1487.0,-3.0,4.0,-1.0
15.469867706298828,,,525.0,662.0,1532.0,-3.0,4.0,-2.0
15.490437030792236,,,565.0,711.0,1586.0,-3.0,3.0,-2.0
15.51082181930542,,,597.0,730.0,1734.0,-4.0,4.0,1.0
15.531250715255737,,,596.0,725.0,1807.0,-4.0,5.0,2.0
15.551845073699951,,,571.0,731.0,1821.0,-4.0,5.0,3.0
15.572141885757446,,,513.0,726.0,1728.0,-3.0,5.0,2.0
15.592571258544922,,,491.0,725.0,1662.0,-4.0,4.0,1.0
15.613034963607788,,,485.0,742.0,1615.0,-4.0,4.0,0.0
15.63364315032959,,,470.0,857.0,1697.0,-3.0,4.0,-1.0
15.65422248840332,,,453.0,900.0,1787.0,-2.0,4.0,0.0
15.674885749816895,,,429.0,927.0,1825.0,-2.0,4.0,2.0
15.699329376220703,,,443.0,862.0,1681.0,-3.0,6.0,4.0
15.719860792160034,,,459.0,819.0,1581.0,-3.0,6.0,2.0
15.740502834320068,,,497.0,656.0,1387.0,-3.0,6.0,-2.0
15.760885953903198,,,522.0,590.0,1342.0,-4.0,6.0,-4.0
15.781186580657959,,,540.0,571.0,1342.0,-4.0,5.0,-7.0
15.801791906356812,,,606.0,617.0,1511.0,-5.0,5.0,-9.0
15.822272539138794,,,630.0,650.0,1572.0,-5.0,5.0,-9.0
15.842777967453003,,,651.0,701.0,1594.0,-6.0,6.0,-9.0
15.863136529922485,,,715.0,807.0,1608.0,-5.0,7.0,-11.0
15.883801937103271,,,737.0,839.0,1664.0,-5.0,7.0,-11.0
15.904303789138794,,,739.0,781.0,1658.0,-5.0,7.0,-9.0
15.924636363983154,,,728.0,771.0,1595.0,-6.0,7.0,-9.0
15.945133924484253,,,739.0,769.0,1529.0,-6.0,7.0,-8.0
15.965566396713257,,,751.0,765.0,1446.0,-5.0,7.0,-8.0
15.986233711242676,,,723.0,717.0,1330.0,-5.0,7.0,-9.0
16.006710290908813,,,692.0,717.0,1321.0,-5.0,6.0,-9.0
16.023046016693115,,,661.0,775.0,1371.0,-5.0,5.0,-8.0
16.043659210205078,,,691.0,833.0,1389.0,-5.0,4.0,-7.0
16.06396245956421,,,752.0,863.0,1406.0,-4.0,4.0,-7.0
16.084522247314453,,,834.0,903.0,1421.0,-4.0,5.0,-5.0
16.105243682861328,,,842.0,892.0,1394.0,-4.0,6.0,-3.0
16.12554144859314,,,773.0,793.0,1279.0,-3.0,7.0,-3.0
16.145852088928223,,,733.0,681.0,1237.0,-3.0,5.0,-4.0
16.166388511657715,,,672.0,577.0,1168.0,-3.0,5.0,-5.0
16.186869382858276,,,645.0,474.0,1062.0,-5.0,4.0,-7.0
16.207489252090454,,,679.0,549.0,1132.0,-6.0,5.0,-8.0
16.227868795394897,,,742.0,626.0,1240.0,-5.0,4.0,-7.0
16.248172760009766,,,776.0,649.0,1312.0,-5.0,5.0,-5.0
16.268951892852783,,,825.0,653.0,1310.0,-6.0,6.0,-4.0
16.28935432434082,,,863.0,687.0,1293.0,-6.0,6.0,-3.0
16.309566974639893,,,757.0,631.0,1162.0,-6.0,7.0,-3.0
16.330055952072144,,,709.0,548.0,1183.0,-5.0,5.0,-5.0
16.350613117218018,,,692.0,531.0,1231.0,-5.0,4.0,-5.0
16.370912075042725,,,720.0,658.0,1333.0,-4.0,3.0,-6.0
16.3914737701416,,,737.0,703.0,1441.0,-5.0,4.0,-5.0
16.41185998916626,,,786.0,753.0,1575.0,-5.0,5.0,1.0
16.432401180267334,,,809.0,795.0,1584.0,-4.0,5.0,2.0
16.4529230594635,,,802.0,798.0,1539.0,-4.0,4.0,3.0
16.47377848625183,,,680.0,736.0,1350.0,-2.0,4.0,2.0
16.494274377822876,,,637.0,729.0,1235.0,-2.0,3.0,0.0
16.514934539794922,,,641.0,750.0,1169.0,-1.0,3.0,-2.0
16.535279035568237,,,673.0,794.0,1167.0,-2.0,2.0,-3.0
16.555816411972046,,,669.0,808.0,1167.0,-2.0,3.0,-3.0
16.5762357711792,,,647.0,807.0,1189.0,-2.0,3.0,-3.0
16.59680199623108,,,640.0,708.0,1230.0,-2.0,3.0,-5.0
16.61726975440979,,,681.0,663.0,1231.0,-1.0,2.0,-6.0
16.63766098022461,,,807.0,624.0,1214.0,-1.0,3.0,-7.0
16.658090114593506,,,855.0,669.0,1209.0,-1.0,4.0,-7.0
16.678616523742676,,,888.0,697.0,1236.0,0.0,5.0,-5.0
16.699191331863403,,,817.0,653.0,1184.0,0.0,7.0,-2.0
16.719712257385254,,,701.0,634.0,1080.0,0.0,8.0,-2.0
16.74032473564148,,,589.0,625.0,946.0,0.0,8.0,-3.0
16.76079773902893,,,472.0,579.0,815.0,-4.0,4.0,-8.0
16.78128743171692,,,485.0,565.0,911.0,-6.0,3.0,-8.0
16.801815032958984,,,505.0,603.0,1011.0,-7.0,3.0,-7.0
16.822031021118164,,,537.0,784.0,1084.0,-7.0,5.0,-5.0
16.842698574066162,,,591.0,849.0,1142.0,-6.0,6.0,-5.0
16.863070249557495,,,647.0,876.0,1231.0,-5.0,6.0,-4.0
16.883661031723022,,,707.0,773.0,1335.0,-6.0,5.0,-2.0
16.90407109260559,,,727.0,757.0,1369.0,-7.0,4.0,-2.0
16.924617290496826,,,698.0,863.0,1482.0,-6.0,5.0,-1.0
16.945005416870117,,,660.0,912.0,1516.0,-6.0,6.0,1.0
16.965632438659668,,,626.0,926.0,1456.0,-7.0,6.0,3.0
16.985994577407837,,,593.0,929.0,1305.0,-7.0,4.0,2.0
17.006624460220337,,,593.0,934.0,1264.0,-6.0,3.0,2.0
17.02699875831604,,,597.0,971.0,1223.0,-6.0,3.0,2.0
17.047621726989746,,,656.0,1024.0,1168.0,-7.0,4.0,2.0
17.068164587020874,,,697.0,1030.0,1153.0,-7.0,5.0,3.0
17.088608503341675,,,731.0,989.0,1099.0,-6.0,5.0,4.0
17.104885578155518,,,712.0,865.0,956.0,-6.0,6.0,3.0
17.125284433364868,,,680.0,817.0,867.0,-5.0,6.0,1.0
17.14596199989319,,,635.0,724.0,699.0,-5.0,5.0,-4.0
17.166356563568115,,,625.0,656.0,718.0,-5.0,4.0,-7.0
17.187092304229736,,,659.0,601.0,815.0,-5.0,3.0,-9.0
17.207231283187866,,,698.0,632.0,955.0,-4.0,2.0,-9.0
17.22784972190857,,,742.0,713.0,1045.0,-4.0,3.0,-7.0
17.248194217681885,,,785.0,786.0,1059.0,-4.0,4.0,-5.0
17.268904447555542,,,821.0,799.0,929.0,-4.0,6.0,-3.0
17.289206743240356,,,784.0,738.0,820.0,-4.0,6.0,-3.0
17.30980372428894,,,725.0,641.0,778.0,-3.0,5.0,-6.0
17.330175638198853,,,713.0,491.0,887.0,-3.0,3.0,-8.0
17.350828409194946,,,739.0,537.0,908.0,-3.0,3.0,-7.0
17.371269941329956,,,771.0,637.0,901.0,-4.0,4.0,-6.0
17.39184856414795,,,787.0,742.0,997.0,-2.0,5.0,-4.0
17.412145137786865,,,771.0,720.0,1080.0,-1.0,5.0,-3.0
17.432734727859497,,,643.0,678.0,1025.0,-1.0,3.0,-1.0
17.453132152557373,,,588.0,702.0,942.0,-2.0,2.0,-3.0
17.473673105239868,,,573.0,747.0,1006.0,0.0,1.0,-5.0
17.494187593460083,,,481.0,810.0,1166.0,1.0,0.0,-3.0
17.514655828475952,,,376.0,827.0,1108.0,-1.0,2.0,-3.0
17.535215139389038,,,175.0,851.0,1174.0,-2.0,3.0,-5.0
17.55571722984314,,,-504.0,676.0,1020.0,3.0,-8.0,-3.0
17.576176166534424,,,-830.0,613.0,448.0,8.0,-16.0,-1.0
17.596669912338257,,,-1086.0,612.0,-338.0,13.0,-17.0,6.0
17.617050886154175,,,-1955.0,973.0,-1674.0,25.0,4.0,16.0
17.637705087661743,,,-2062.0,1096.0,-1903.0,34.0,14.0,20.0
17.658095359802246,,,-1968.0,2150.0,-2634.0,42.0,29.0,18.0
17.678779363632202,,,-1850.0,2950.0,-3109.0,46.0,44.0,17.0
17.6990168094635,,,-1872.0,3651.0,-3647.0,47.0,61.0,8.0
17.71983289718628,,,-2589.0,4895.0,-4451.0,44.0,94.0,-2.0
17.74017310142517,,,-2999.0,5316.0,-4467.0,43.0,117.0,-12.0
17.760607481002808,,,-3284.0,5468.0,-3769.0,43.0,143.0,-25.0
17.781151294708252,,,-3848.0,5253.0,-2402.0,47.0,169.0,-30.0
17.80156683921814,,,-4804.0,4116.0,-707.0,53.0,203.0,-25.0
17.822224617004395,,,-5506.0,1744.0,965.0,50.0,239.0,-13.0
17.84256410598755,,,-4039.0,-3658.0,4071.0,11.0,246.0,16.0
17.863126516342163,,,-1998.0,-5113.0,5335.0,-20.0,206.0,28.0
17.88347291946411,,,-434.0,-5244.0,6305.0,-45.0,155.0,38.0
17.904069423675537,,,417.0,-3388.0,7347.0,-59.0,98.0,47.0
17.92459535598755,,,511.0,-2315.0,7586.0,-62.0,80.0,51.0
17.944920301437378,,,86.0,-431.0,7435.0,-78.0,46.0,63.0
17.965618133544922,,,-485.0,563.0,7142.0,-87.0,49.0,73.0
17.985886096954346,,,-673.0,1758.0,6867.0,-93.0,52.0,88.0
18.00648331642151,,,-187.0,4572.0,5384.0,-96.0,42.0,124.0
18.026941299438477,,,-152.0,5776.0,4014.0,-98.0,40.0,139.0
18.047480583190918,,,-232.0,6794.0,2482.0,-98.0,40.0,152.0
18.067683219909668,,,-36.0,8139.0,80.0,-83.0,58.0,186.0
18.08842897415161,,,748.0,7539.0,-813.0,-77.0,55.0,201.0
18.108861923217773,,,1517.0,6099.0,-1479.0,-77.0,40.0,197.0
18.129448652267456,,,1665.0,3127.0,-1208.0,-91.0,35.0,158.0
18.149850606918335,,,1918.0,2829.0,-62.0,-104.0,37.0,142.0
18.1703462600708,,,2394.0,4492.0,3692.0,-155.0,-21.0,105.0
18.186800479888916,,,1595.0,4971.0,4889.0,-182.0,-59.0,98.0
18.211397171020508,,,617.0,4745.0,5105.0,-195.0,-70.0,85.0
18.231809377670288,,,-808.0,2946.0,4231.0,-186.0,-66.0,49.0
18.25224733352661,,,-1566.0,1506.0,3127.0,-170.0,-59.0,14.0
18.272737503051758,,,-3721.0,470.0,-1325.0,-123.0,-51.0,-59.0
18.293362379074097,,,-4509.0,826.0,-4069.0,-105.0,-54.0,-88.0
18.313701391220093,,,-4695.0,1754.0,-6495.0,-95.0,-59.0,-104.0
18.334144592285156,,,-3979.0,3511.0,-10324.0,-100.0,-19.0,-119.0
18.354492902755737,,,-3285.0,4816.0,-11238.0,-107.0,28.0,-127.0
18.375170707702637,,,-2723.0,6785.0,-11070.0,-103.0,63.0,-119.0
18.395602226257324,,,-4285.0,9578.0,-9176.0,-35.0,147.0,-67.0
18.41603446006775,,,-5812.0,9779.0,-6556.0,6.0,204.0,-46.0
18.436787605285645,,,-7515.0,9289.0,-2947.0,53.0,258.0,-39.0
18.45728325843811,,,-7774.0,5972.0,5048.0,101.0,348.0,2.0
18.4777991771698,,,-3745.0,6037.0,8374.0,86.0,297.0,2.0
18.49811863899231,,,218.0,6513.0,10387.0,50.0,165.0,6.0
18.51872491836548,,,1579.0,5114.0,9720.0,14.0,91.0,17.0
18.538908004760742,,,2055.0,4993.0,8686.0,17.0,119.0,33.0
18.55940890312195,,,4964.0,3058.0,8396.0,16.0,83.0,41.0
18.57988429069519,,,6289.0,1731.0,7504.0,4.0,29.0,36.0
18.60033369064331,,,7080.0,298.0,5954.0,-10.0,-25.0,28.0
18.62083911895752,,,7923.0,-2808.0,2422.0,-33.0,-121.0,16.0
18.641298055648804,,,8005.0,-4246.0,498.0,-37.0,-162.0,4.0
18.66182255744934,,,7489.0,-5333.0,-1496.0,-40.0,-185.0,-24.0
18.682332038879395,,,4810.0,-5657.0,-4962.0,-43.0,-152.0,-65.0
18.702805519104004,,,3161.0,-5345.0,-6157.0,-33.0,-109.0,-86.0
18.723268270492554,,,1112.0,-4498.0,-6397.0,-34.0,-43.0,-127.0
18.74383568763733,,,-1908.0,117.0,-2323.0,-12.0,83.0,-222.0
18.76429796218872,,,-1416.0,2546.0,1096.0,8.0,88.0,-250.0
18.78473734855652,,,209.0,4384.0,3964.0,-15.0,59.0,-244.0
18.80520534515381,,,1435.0,6016.0,5754.0,-61.0,15.0,-205.0
18.825467824935913,,,1430.0,7592.0,6480.0,-84.0,-4.0,-158.0
18.846135139465332,,,2223.0,9393.0,5884.0,-84.0,2.0,-83.0
18.866485834121704,,,3595.0,9518.0,4806.0,-70.0,-20.0,-54.0
18.887026071548462,,,4769.0,9060.0,3170.0,-55.0,-54.0,-33.0
18.90744924545288,,,5679.0,7345.0,-896.0,-39.0,-104.0,4.0
18.92798662185669,,,5109.0,6323.0,-2990.0,-33.0,-102.0,15.0
18.948431491851807,,,4168.0,5407.0,-4716.0,-26.0,-77.0,17.0
18.964967012405396,,,1192.0,4342.0,-6227.0,-5.0,22.0,15.0
18.985360860824585,,,-329.0,3812.0,-5033.0,8.0,93.0,11.0
19.005959033966064,,,-1707.0,2554.0,-2702.0,17.0,148.0,13.0
19.026300191879272,,,-2295.0,-1978.0,2868.0,-15.0,205.0,33.0
19.046961545944214,,,361.0,-3348.0,5091.0,-21.0,177.0,-9.0
19.067253589630127,,,4400.0,-3737.0,7782.0,-24.0,-9.0,-60.0
19.087867975234985,,,3632.0,-2932.0,7010.0,-20.0,-30.0,-54.0
19.108323097229004,,,3076.0,-2034.0,5328.0,-5.0,-16.0,-51.0
19.12890934944153,,,2821.0,-1372.0,3390.0,13.0,3.0,-50.0
19.149287700653076,,,2983.0,-1295.0,3175.0,13.0,-8.0,-52.0
19.16983699798584,,,2895.0,-1375.0,2949.0,7.0,-26.0,-55.0
19.190293788909912,,,2627.0,-1599.0,2439.0,-13.0,-51.0,-67.0
19.210867166519165,,,2504.0,-1244.0,2262.0,-17.0,-50.0,-78.0
19.231237649917603,,,2759.0,-657.0,2285.0,-17.0,-47.0,-83.0
19.251731872558594,,,3944.0,743.0,2710.0,-11.0,-59.0,-72.0
19.272233724594116,,,4484.0,1235.0,2656.0,-13.0,-67.0,-62.0
19.2927405834198,,,4898.0,1648.0,1297.0,-19.0,-53.0,-41.0
19.313755750656128,,,4740.0,1540.0,539.0,-25.0,-39.0,-29.0
19.333921432495117,,,4234.0,1387.0,-55.0,-29.0,-23.0,-21.0
19.354334592819214,,,2896.0,1071.0,-516.0,-31.0,17.0,-23.0
19.374958753585815,,,2477.0,846.0,-435.0,-29.0,32.0,-28.0
19.395244598388672,,,2333.0,583.0,-245.0,-25.0,39.0,-32.0
19.415785789489746,,,2548.0,50.0,413.0,-21.0,26.0,-38.0
19.436198711395264,,,2627.0,-5.0,707.0,-20.0,15.0,-40.0
19.45676589012146,,,2535.0,113.0,885.0,-19.0,9.0,-40.0
19.477388620376587,,,2157.0,326.0,1334.0,-19.0,17.0,-33.0
19.49783182144165,,,2107.0,217.0,1866.0,-20.0,20.0,-27.0
19.518369913101196,,,2118.0,71.0,2411.0,-23.0,19.0,-22.0
19.538846969604492,,,2279.0,-360.0,3139.0,-25.0,18.0,-12.0
19.559255123138428,,,2431.0,-706.0,3364.0,-22.0,17.0,-11.0
19.57971739768982,,,2517.0,-1116.0,3464.0,-18.0,10.0,-12.0
19.60017967224121,,,2390.0,-1386.0,3336.0,-13.0,-1.0,-15.0
19.620657682418823,,,2054.0,-1395.0,2973.0,-8.0,-10.0,-18.0
19.64118504524231,,,1385.0,-944.0,1879.0,-1.0,-17.0,-22.0
19.661527633666992,,,1161.0,-687.0,1339.0,1.0,-18.0,-21.0
19.681933164596558,,,1040.0,-503.0,895.0,1.0,-18.0,-19.0
19.70242691040039,,,972.0,-234.0,282.0,4.0,-14.0,-18.0
19.722949743270874,,,978.0,-175.0,243.0,6.0,-9.0,-18.0
19.743542432785034,,,1022.0,-213.0,392.0,8.0,-6.0,-17.0
19.7638738155365,,,1017.0,-389.0,617.0,9.0,-4.0,-14.0
19.784382343292236,,,901.0,-509.0,614.0,9.0,-3.0,-13.0
19.804981231689453,,,759.0,-854.0,758.0,9.0,-3.0,-13.0
19.82538938522339,,,723.0,-940.0,834.0,10.0,-4.0,-14.0
19.846479177474976,,,665.0,-925.0,858.0,10.0,-3.0,-14.0
19.86698269844055,,,515.0,-843.0,945.0,10.0,0.0,-14.0
19.88747477531433,,,444.0,-849.0,1045.0,7.0,1.0,-13.0
19.907961130142212,,,399.0,-851.0,1124.0,4.0,0.0,-11.0
19.928356647491455,,,381.0,-814.0,1155.0,0.0,-2.0,-9.0
19.948699474334717,,,391.0,-701.0,1163.0,-3.0,-3.0,-7.0
19.969417572021484,,,413.0,-551.0,1301.0,-6.0,-5.0,-1.0
19.989770889282227,,,405.0,-619.0,1305.0,-8.0,-8.0,3.0
20.010271310806274,,,356.0,-667.0,1151.0,-10.0,-10.0,4.0
20.030611276626587,,,168.0,-630.0,845.0,-10.0,-7.0,2.0
20.05096983909607,,,86.0,-608.0,819.0,-9.0,-6.0,1.0
20.071656465530396,,,22.0,-581.0,826.0,-6.0,-4.0,-1.0
20.092094898223877,,,-39.0,-618.0,751.0,-4.0,-2.0,-7.0
20.112436771392822,,,-8.0,-573.0,701.0,-4.0,-1.0,-9.0
20.13286280632019,,,57.0,-508.0,646.0,-4.0,-1.0,-10.0
20.153203010559082,,,313.0,-330.0,662.0,-1.0,3.0,-13.0
20.17395305633545,,,489.0,-268.0,751.0,2.0,4.0,-12.0
20.19436550140381,,,681.0,-261.0,906.0,7.0,7.0,-12.0
20.215017080307007,,,721.0,-266.0,974.0,10.0,10.0,-13.0
20.23546862602234,,,800.0,-329.0,1099.0,11.0,12.0,-14.0
20.255919456481934,,,1043.0,-382.0,1328.0,11.0,13.0,-12.0
20.276424884796143,,,1205.0,-390.0,1401.0,9.0,15.0,-8.0
20.2969708442688,,,1360.0,-405.0,1499.0,6.0,15.0,-4.0
20.317320346832275,,,1333.0,-314.0,1624.0,-2.0,21.0,8.0
20.3377902507782,,,1223.0,-389.0,1607.0,-7.0,24.0,15.0
20.35814929008484,,,1173.0,-530.0,1384.0,-10.0,22.0,21.0
20.37849497795105,,,818.0,-454.0,426.0,-7.0,13.0,26.0
20.399086236953735,,,426.0,-281.0,-38.0,-3.0,13.0,23.0
20.419570207595825,,,-648.0,77.0,-592.0,6.0,15.0,9.0
20.440012216567993,,,-1188.0,285.0,-599.0,9.0,17.0,0.0
20.46050500869751,,,-1606.0,410.0,-379.0,11.0,18.0,-6.0
20.480997800827026,,,-1991.0,196.0,502.0,10.0,5.0,-11.0
20.501525402069092,,,-2101.0,18.0,808.0,8.0,-8.0,-11.0
20.521989822387695,,,-2183.0,-108.0,943.0,5.0,-19.0,-10.0
20.542710542678833,,,-2155.0,-314.0,888.0,0.0,-31.0,-8.0
20.563081741333008,,,-2091.0,-487.0,950.0,-4.0,-33.0,-8.0
20.583661794662476,,,-1998.0,-693.0,1127.0,-10.0,-36.0,-7.0
20.604148626327515,,,-1816.0,-630.0,1293.0,-14.0,-36.0,-10.0
20.624632120132446,,,-1512.0,-727.0,1391.0,-12.0,-32.0,-10.0
20.645036935806274,,,-1048.0,-1008.0,1427.0,-8.0,-32.0,-10.0
20.665611028671265,,,-265.0,-1467.0,896.0,-3.0,-34.0,-15.0
20.686100959777832,,,65.0,-1535.0,479.0,-2.0,-28.0,-22.0
20.706578016281128,,,915.0,-1333.0,18.0,-3.0,-7.0,-36.0
20.72690224647522,,,1449.0,-1098.0,67.0,-3.0,0.0,-36.0
20.74738359451294,,,1941.0,-834.0,155.0,-3.0,1.0,-30.0
20.76787543296814,,,2663.0,-399.0,27.0,-7.0,5.0,-14.0
20.78834819793701,,,2964.0,-277.0,-125.0,-8.0,11.0,-7.0
20.80877709388733,,,3288.0,-266.0,-215.0,-10.0,16.0,6.0
20.82932186126709,,,3229.0,-353.0,-271.0,-10.0,18.0,12.0
20.84981870651245,,,3070.0,-517.0,-381.0,-9.0,22.0,16.0
20.870288848876953,,,2430.0,-814.0,-780.0,-7.0,30.0,14.0
20.89092445373535,,,1901.0,-804.0,-961.0,-6.0,35.0,10.0
20.911291122436523,,,1230.0,-621.0,-959.0,-4.0,44.0,4.0
20.93196940422058,,,-349.0,-142.0,-223.0,4.0,62.0,-3.0
20.95256233215332,,,-1165.0,-107.0,627.0,9.0,63.0,-4.0
20.973029375076294,,,-1862.0,-428.0,1791.0,14.0,51.0,-7.0
20.993871450424194,,,-2409.0,-966.0,2968.0,16.0,24.0,-12.0
21.014236211776733,,,-2825.0,-1402.0,3555.0,16.0,-4.0,-17.0
21.03467059135437,,,-2665.0,-1274.0,2622.0,9.0,-22.0,-36.0
21.05509877204895,,,-2145.0,-1009.0,2099.0,8.0,-15.0,-45.0
21.075401544570923,,,-1466.0,-911.0,1894.0,9.0,-14.0,-47.0
21.095824480056763,,,-11.0,-469.0,1555.0,1.0,-24.0,-25.0
21.116220235824585,,,638.0,-88.0,1408.0,-1.0,-26.0,-10.0
21.136704444885254,,,1114.0,246.0,1406.0,-2.0,-22.0,3.0
21.157325506210327,,,1306.0,442.0,1829.0,-7.0,-4.0,17.0
21.17767572402954,,,1126.0,221.0,2043.0,-11.0,3.0,17.0
21.19816517829895,,,975.0,-53.0,2064.0,-13.0,6.0,17.0
21.21881127357483,,,1138.0,-561.0,1719.0,-6.0,8.0,12.0
21.239323377609253,,,1323.0,-755.0,1427.0,-3.0,6.0,11.0
21.25966739654541,,,1522.0,-865.0,1064.0,0.0,5.0,11.0
21.280208826065063,,,1853.0,-885.0,495.0,-3.0,6.0,10.0
21.300934076309204,,,2022.0,-726.0,336.0,-6.0,8.0,12.0
21.321291208267212,,,2464.0,-366.0,230.0,-10.0,15.0,18.0
21.3418231010437,,,2718.0,-289.0,169.0,-10.0,17.0,23.0
21.362266540527344,,,2911.0,-194.0,73.0,-10.0,19.0,28.0
21.382761001586914,,,3056.0,24.0,32.0,-8.0,23.0,35.0
21.403208255767822,,,2948.0,42.0,100.0,-7.0,25.0,38.0
21.423651695251465,,,2764.0,-13.0,136.0,-7.0,26.0,40.0
21.444026470184326,,,2305.0,-205.0,113.0,-8.0,27.0,38.0
21.46454167366028,,,2092.0,-215.0,117.0,-10.0,27.0,35.0
21.485025882720947,,,1941.0,-158.0,158.0,-12.0,29.0,31.0
21.50558876991272,,,1916.0,160.0,361.0,-20.0,30.0,27.0
21.525964498519897,,,1988.0,333.0,545.0,-25.0,32.0,28.0
21.546458959579468,,,2425.0,581.0,987.0,-39.0,32.0,38.0
21.562910318374634,,,2778.0,849.0,1018.0,-46.0,30.0,47.0
21.583297729492188,,,3004.0,1315.0,787.0,-53.0,27.0,56.0
21.603834867477417,,,2870.0,2497.0,0.0,-63.0,31.0,79.0
21.62460446357727,,,2637.0,3060.0,-287.0,-64.0,36.0,94.0
21.645081996917725,,,2284.0,3461.0,-536.0,-63.0,39.0,111.0
21.665475130081177,,,910.0,3548.0,-849.0,-52.0,36.0,135.0
21.68600034713745,,,101.0,3096.0,-791.0,-46.0,32.0,136.0
21.7064847946167,,,-609.0,2411.0,-622.0,-41.0,26.0,127.0
21.726890802383423,,,-1437.0,1143.0,-250.0,-29.0,16.0,93.0
21.747413635253906,,,-1491.0,899.0,-179.0,-22.0,12.0,79.0
21.76795196533203,,,-1331.0,856.0,-167.0,-16.0,9.0,72.0
21.788363933563232,,,-862.0,597.0,-131.0,-6.0,-3.0,71.0
21.80871868133545,,,-771.0,325.0,-177.0,-6.0,-6.0,69.0
21.829346656799316,,,-846.0,-166.0,-238.0,-7.0,2.0,54.0
21.849722385406494,,,-793.0,-295.0,-143.0,-5.0,8.0,44.0
21.870283842086792,,,-615.0,-338.0,15.0,-3.0,12.0,36.0
21.890790224075317,,,-202.0,-339.0,173.0,2.0,14.0,23.0
21.911238431930542,,,-25.0,-324.0,216.0,4.0,15.0,18.0
21.931666374206543,,,125.0,-323.0,302.0,5.0,15.0,14.0
21.952167749404907,,,462.0,-437.0,575.0,6.0,10.0,6.0
21.97270441055298,,,518.0,-525.0,623.0,7.0,8.0,-2.0
21.993347883224487,,,486.0,-453.0,655.0,9.0,10.0,-14.0
22.013841152191162,,,599.0,275.0,1061.0,14.0,17.0,-27.0
22.034249782562256,,,897.0,647.0,1326.0,16.0,14.0,-26.0
22.05479860305786,,,1864.0,1020.0,1397.0,12.0,-1.0,-15.0
22.075299501419067,,,2186.0,1052.0,1148.0,8.0,-7.0,-11.0
22.095741033554077,,,2317.0,1044.0,841.0,5.0,-9.0,-10.0
22.11628270149231,,,1983.0,917.0,417.0,0.0,-1.0,-15.0
22.136645793914795,,,1924.0,853.0,464.0,0.0,4.0,-19.0
22.15707015991211,,,2059.0,838.0,527.0,0.0,2.0,-20.0
22.177538633346558,,,2159.0,592.0,-70.0,0.0,-12.0,-18.0
22.198081254959106,,,1913.0,180.0,-550.0,-1.0,-15.0,-20.0
22.218514919281006,,,1567.0,-312.0,-846.0,-3.0,-16.0,-27.0
22.239065885543823,,,686.0,-905.0,-970.0,-3.0,-18.0,-51.0
22.25964665412903,,,217.0,-827.0,-970.0,0.0,-17.0,-63.0
22.28018069267273,,,-198.0,-605.0,-885.0,4.0,-16.0,-72.0
22.300676822662354,,,-673.0,-43.0,-252.0,8.0,-21.0,-84.0
22.321017265319824,,,-568.0,310.0,224.0,8.0,-28.0,-85.0
22.341650009155273,,,189.0,886.0,779.0,9.0,-52.0,-77.0
22.362162351608276,,,574.0,1063.0,659.0,9.0,-60.0,-73.0
22.382639408111572,,,953.0,1233.0,502.0,7.0,-62.0,-70.0
22.40312385559082,,,1784.0,1839.0,233.0,-1.0,-51.0,-65.0
22.42366600036621,,,2133.0,2173.0,125.0,-4.0,-41.0,-60.0
22.44410753250122,,,2367.0,2446.0,82.0,-8.0,-31.0,-52.0
22.4645676612854,,,2505.0,2887.0,359.0,-12.0,-12.0,-33.0
22.48506474494934,,,2382.0,3017.0,706.0,-9.0,-4.0,-24.0
22.505560398101807,,,2165.0,2980.0,1054.0,-3.0,3.0,-17.0
22.52586579322815,,,1764.0,1920.0,1723.0,3.0,0.0,-7.0
22.54638934135437,,,1681.0,1131.0,1783.0,0.0,-8.0,-5.0
22.5668363571167,,,1871.0,160.0,1077.0,-4.0,-12.0,-8.0
22.587355136871338,,,2118.0,-62.0,728.0,-3.0,-9.0,-9.0
22.607833862304688,,,2276.0,-146.0,516.0,-1.0,-4.0,-9.0
22.62835955619812,,,2299.0,-217.0,718.0,5.0,10.0,-8.0
22.64468002319336,,,2184.0,-406.0,1177.0,6.0,12.0,-7.0
22.665406465530396,,,2055.0,-745.0,1653.0,8.0,10.0,-6.0
22.6857488155365,,,2081.0,-1526.0,2214.0,13.0,6.0,-13.0
22.706336975097656,,,2093.0,-1742.0,2257.0,14.0,3.0,-18.0
22.726868867874146,,,2058.0,-1762.0,2197.0,15.0,3.0,-25.0
22.747350454330444,,,1847.0,-1231.0,2074.0,13.0,2.0,-35.0
22.76783299446106,,,1591.0,-533.0,1913.0,16.0,2.0,-39.0
22.78833556175232,,,1232.0,186.0,1808.0,18.0,4.0,-42.0
22.80884289741516,,,258.0,1164.0,2192.0,16.0,-3.0,-41.0
22.82934045791626,,,-163.0,1622.0,2460.0,16.0,-12.0,-40.0
22.849730253219604,,,-525.0,2738.0,2372.0,16.0,-23.0,-34.0
22.87015724182129,,,-565.0,3154.0,2132.0,12.0,-22.0,-30.0
22.890610218048096,,,-478.0,3454.0,1933.0,6.0,-22.0,-24.0
22.91110372543335,,,191.0,3511.0,1506.0,-14.0,-32.0,6.0
22.931578159332275,,,410.0,3622.0,881.0,-21.0,-39.0,23.0
22.95206356048584,,,502.0,3853.0,190.0,-24.0,-38.0,38.0
22.97268009185791,,,740.0,3407.0,-607.0,-15.0,-25.0,67.0
22.99323320388794,,,855.0,2477.0,-770.0,-8.0,-29.0,82.0
23.013633251190186,,,898.0,1430.0,-1025.0,-5.0,-39.0,91.0
23.034040927886963,,,1097.0,39.0,-2002.0,4.0,-48.0,83.0
23.054708242416382,,,1288.0,-77.0,-2510.0,12.0,-45.0,69.0
23.07517647743225,,,1401.0,491.0,-3070.0,38.0,-21.0,47.0
23.095686435699463,,,1110.0,1166.0,-2654.0,49.0,-4.0,39.0
23.116174936294556,,,654.0,1843.0,-1632.0,59.0,15.0,42.0
23.136682987213135,,,-643.0,2002.0,1444.0,57.0,34.0,56.0
23.157171487808228,,,-1430.0,1425.0,2778.0,42.0,27.0,62.0
23.17765974998474,,,-2014.0,331.0,4017.0,27.0,14.0,72.0
23.198144674301147,,,-2661.0,-1646.0,5121.0,20.0,-14.0,62.0
23.218448877334595,,,-2594.0,-1965.0,4671.0,26.0,-13.0,45.0
23.24324655532837,,,-2292.0,-1767.0,3095.0,31.0,-3.0,15.0
23.263739824295044,,,-2603.0,-1564.0,2438.0,32.0,-3.0,2.0
23.284281969070435,,,-3059.0,-1349.0,2123.0,33.0,0.0,-8.0
23.304763555526733,,,-2927.0,-1342.0,2677.0,25.0,-2.0,-12.0
23.32523775100708,,,-2453.0,-1560.0,2605.0,19.0,-11.0,-10.0
23.3456609249115,,,-2110.0,-1844.0,2099.0,12.0,-13.0,-14.0
23.361937522888184,,,-1588.0,-2314.0,966.0,-2.0,-10.0,-31.0
23.38254690170288,,,-1234.0,-2393.0,553.0,-6.0,-14.0,-35.0
23.403040170669556,,,-988.0,-2280.0,31.0,-8.0,-20.0,-38.0
23.423463582992554,,,-585.0,-1734.0,-837.0,-2.0,-21.0,-44.0
23.443999528884888,,,-232.0,-1835.0,-951.0,0.0,-24.0,-45.0
23.46450424194336,,,267.0,-2539.0,-1714.0,-12.0,-48.0,-55.0
23.48498773574829,,,568.0,-2701.0,-2333.0,-21.0,-58.0,-64.0
23.505333423614502,,,1033.0,-2582.0,-2743.0,-26.0,-63.0,-75.0
23.525940418243408,,,1541.0,-1247.0,-2906.0,-23.0,-49.0,-97.0
23.546447277069092,,,1366.0,-431.0,-2474.0,-21.0,-26.0,-106.0
23.56676197052002,,,1101.0,169.0,-1215.0,-20.0,2.0,-110.0
23.587242126464844,,,789.0,-188.0,4230.0,-16.0,16.0,-111.0
23.607750177383423,,,524.0,-712.0,6565.0,-22.0,-13.0,-102.0
23.628254413604736,,,463.0,-924.0,7468.0,-36.0,-36.0,-88.0
23.648743867874146,,,1400.0,-482.0,6542.0,-51.0,-37.0,-76.0
23.66919708251953,,,2133.0,-148.0,6054.0,-46.0,-28.0,-71.0
23.689666509628296,,,2668.0,51.0,5906.0,-39.0,-28.0,-62.0
23.71039843559265,,,2898.0,188.0,5769.0,-23.0,-23.0,-46.0
23.730716228485107,,,2679.0,0.0,5603.0,-18.0,-18.0,-48.0
23.751275539398193,,,2440.0,-200.0,5012.0,-9.0,-5.0,-58.0
23.771648168563843,,,2530.0,-20.0,4665.0,-5.0,7.0,-61.0
23.79213547706604,,,2603.0,188.0,4472.0,-2.0,17.0,-61.0
23.812824726104736,,,2393.0,-34.0,4370.0,-3.0,21.0,-46.0
23.83340096473694,,,2177.0,-373.0,4136.0,-6.0,16.0,-34.0
23.853793621063232,,,2049.0,-744.0,3664.0,-7.0,12.0,-23.0
23.874114274978638,,,1829.0,-1156.0,2327.0,2.0,12.0,-8.0
23.89469575881958,,,1473.0,-1101.0,1821.0,9.0,15.0,-5.0
23.91526985168457,,,871.0,-970.0,1500.0,16.0,18.0,-5.0
23.93562960624695,,,-695.0,-1076.0,748.0,22.0,15.0,-8.0
23.95604705810547,,,-1414.0,-1384.0,431.0,18.0,6.0,-8.0
23.976638317108154,,,-2168.0,-1850.0,-145.0,11.0,-17.0,2.0
23.997339963912964,,,-2192.0,-1971.0,-738.0,9.0,-25.0,7.0
24.017784595489502,,,-2170.0,-2070.0,-1501.0,7.0,-29.0,9.0
24.038148880004883,,,-2144.0,-2532.0,-2755.0,-1.0,-39.0,11.0
24.058525323867798,,,-2035.0,-2841.0,-3203.0,-4.0,-45.0,12.0
24.079143285751343,,,-1737.0,-3058.0,-3645.0,-5.0,-52.0,9.0
24.099541425704956,,,-883.0,-2750.0,-4719.0,2.0,-54.0,-17.0
24.120136499404907,,,-376.0,-2170.0,-5169.0,8.0,-48.0,-37.0
24.140647649765015,,,142.0,-1423.0,-5353.0,15.0,-35.0,-56.0
24.1612811088562,,,1127.0,-175.0,-4651.0,22.0,3.0,-67.0
24.181506872177124,,,1490.0,63.0,-4023.0,19.0,16.0,-66.0
24.20211362838745,,,1798.0,224.0,-3503.0,11.0,19.0,-68.0
24.22258758544922,,,2494.0,1739.0,-2941.0,-9.0,10.0,-64.0
24.243010997772217,,,2747.0,3409.0,-2505.0,-13.0,13.0,-49.0
24.263429880142212,,,2767.0,6480.0,279.0,3.0,73.0,18.0
24.284080743789673,,,1747.0,6388.0,2392.0,14.0,109.0,30.0
24.304622411727905,,,89.0,4753.0,4068.0,13.0,112.0,30.0
24.32517099380493,,,-1745.0,2764.0,4448.0,-5.0,83.0,51.0
24.34554171562195,,,-4458.0,779.0,2738.0,-37.0,43.0,64.0
24.366137742996216,,,-4912.0,1230.0,2059.0,-29.0,54.0,36.0
24.386693954467773,,,-5128.0,1701.0,3434.0,10.0,75.0,2.0
24.407147645950317,,,-5335.0,878.0,4299.0,23.0,55.0,8.0
24.427384614944458,,,-5547.0,60.0,4231.0,25.0,35.0,16.0
24.448039293289185,,,-5289.0,-526.0,2594.0,14.0,41.0,-8.0
24.46489119529724,,,-4816.0,-620.0,2139.0,9.0,47.0,-21.0
24.485206127166748,,,-3554.0,-504.0,2324.0,9.0,39.0,-27.0
24.5054030418396,,,-2999.0,-330.0,2429.0,10.0,31.0,-26.0
24.525944709777832,,,-2523.0,-234.0,2411.0,10.0,26.0,-23.0
24.546397924423218,,,-1572.0,-382.0,2320.0,0.0,7.0,-15.0
24.567328214645386,,,-1120.0,-476.0,2209.0,-4.0,-2.0,-10.0
24.587838411331177,,,-784.0,-651.0,2097.0,-9.0,-9.0,-6.0
24.608285903930664,,,6.0,-1520.0,1744.0,-15.0,-17.0,1.0
24.628785133361816,,,465.0,-2226.0,1349.0,-14.0,-18.0,6.0
24.649312734603882,,,900.0,-3018.0,868.0,-14.0,-21.0,8.0
24.66972327232361,,,1779.0,-3734.0,-53.0,-14.0,-21.0,-2.0
24.69031310081482,,,2435.0,-3626.0,-154.0,-11.0,-17.0,-10.0
24.710825443267822,,,3212.0,-3236.0,46.0,-6.0,-12.0,-17.0
24.7313015460968,,,4697.0,-2273.0,803.0,3.0,-2.0,-26.0
24.751633644104004,,,5133.0,-1848.0,1023.0,2.0,3.0,-28.0
24.77223563194275,,,5540.0,-1077.0,1314.0,-11.0,17.0,-32.0
24.792644023895264,,,5653.0,-902.0,1628.0,-16.0,21.0,-33.0
24.813079118728638,,,5755.0,-1065.0,1969.0,-19.0,20.0,-32.0
24.83352756500244,,,5765.0,-1664.0,2313.0,-15.0,4.0,-28.0
24.85389471054077,,,5644.0,-1714.0,2321.0,-9.0,-3.0,-23.0
24.87447237968445,,,5501.0,-1830.0,2311.0,-1.0,-7.0,-16.0
24.89506697654724,,,4997.0,-1713.0,2274.0,12.0,-3.0,-3.0
24.915460109710693,,,4660.0,-1481.0,2292.0,17.0,8.0,6.0
24.935919284820557,,,4187.0,-1292.0,2194.0,21.0,17.0,16.0
24.956510066986084,,,2780.0,-629.0,1600.0,31.0,29.0,30.0
24.97698426246643,,,2068.0,-418.0,1312.0,42.0,34.0,29.0
24.997609853744507,,,714.0,-474.0,1067.0,58.0,24.0,27.0
25.017934322357178,,,20.0,-385.0,1216.0,62.0,17.0,27.0
25.038367986679077,,,-814.0,-246.0,1585.0,62.0,15.0,26.0
25.058825492858887,,,-2924.0,-769.0,2694.0,43.0,14.0,21.0
25.079457759857178,,,-4105.0,-1748.0,3233.0,24.0,4.0,23.0
25.099971771240234,,,-5274.0,-2806.0,3642.0,-2.0,-12.0,24.0
25.120362758636475,,,-5691.0,-4292.0,3122.0,-59.0,-43.0,38.0
25.140706062316895,,,-4901.0,-4164.0,2248.0,-83.0,-46.0,45.0
25.161417722702026,,,-4203.0,-3679.0,1214.0,-100.0,-48.0,50.0
25.18172788619995,,,-3290.0,-3285.0,-947.0,-126.0,-62.0,58.0
25.202152490615845,,,-2379.0,-3530.0,-1788.0,-134.0,-81.0,62.0
25.22275686264038,,,-1435.0,-3399.0,-2737.0,-138.0,-111.0,56.0
25.243107318878174,,,17.0,-2203.0,-5075.0,-132.0,-140.0,15.0
25.263607025146484,,,427.0,-1656.0,-6067.0,-125.0,-135.0,-16.0
25.28410506248474,,,1250.0,-1539.0,-7193.0,-100.0,-93.0,-65.0
25.30463480949402,,,1798.0,-1562.0,-7470.0,-77.0,-63.0,-84.0
25.325037002563477,,,2166.0,-933.0,-7142.0,-51.0,-26.0,-112.0
25.345559120178223,,,3724.0,1776.0,-3354.0,-11.0,69.0,-148.0
25.36614203453064,,,4415.0,4281.0,212.0,17.0,126.0,-169.0
25.38654637336731,,,5030.0,4590.0,4340.0,34.0,167.0,-165.0
25.40713620185852,,,5705.0,-592.0,8460.0,10.0,7.0,-112.0
25.42748737335205,,,6340.0,-8.0,7507.0,-10.0,-42.0,-46.0
25.44811749458313,,,7560.0,851.0,5796.0,-19.0,-34.0,-22.0
25.46868896484375,,,9299.0,2032.0,2855.0,18.0,13.0,8.0
25.48907971382141,,,8834.0,3067.0,2383.0,33.0,43.0,34.0
25.509345054626465,,,6008.0,4065.0,3560.0,36.0,79.0,81.0
25.529850244522095,,,4093.0,4511.0,4121.0,36.0,68.0,100.0
25.546212673187256,,,2033.0,5454.0,4208.0,39.0,61.0,111.0
25.56667923927307,,,-3058.0,7134.0,4145.0,54.0,112.0,98.0
25.587250471115112,,,-5648.0,4946.0,4597.0,45.0,113.0,84.0
25.60758066177368,,,-7331.0,2842.0,4675.0,13.0,40.0,79.0
25.628153324127197,,,-6809.0,2668.0,2008.0,-25.0,-8.0,78.0
25.648634910583496,,,-5614.0,2407.0,805.0,-29.0,-12.0,70.0
25.669126987457275,,,-4768.0,1964.0,29.0,-33.0,-15.0,72.0
25.68973445892334,,,-3134.0,541.0,-1092.0,-43.0,-19.0,80.0
25.710119009017944,,,-2275.0,-293.0,-1544.0,-55.0,-33.0,99.0
25.73065733909607,,,-1420.0,-1076.0,-2085.0,-68.0,-49.0,124.0
25.755223274230957,,,0.0,-1873.0,-3281.0,-76.0,-83.0,127.0
25.775782585144043,,,744.0,-1893.0,-3968.0,-63.0,-90.0,106.0
25.79622459411621,,,1698.0,-599.0,-5717.0,-8.0,-30.0,41.0
25.816778421401978,,,1954.0,490.0,-5747.0,9.0,37.0,17.0
25.837231397628784,,,2375.0,1475.0,-4677.0,29.0,93.0,14.0
25.857627153396606,,,3202.0,131.0,411.0,50.0,110.0,12.0
25.87802743911743,,,2601.0,-1045.0,2411.0,32.0,51.0,29.0
25.898656368255615,,,1484.0,-1601.0,2914.0,12.0,15.0,50.0
25.919184923171997,,,747.0,-1539.0,2354.0,5.0,13.0,31.0
25.939593076705933,,,656.0,-1069.0,1616.0,11.0,27.0,-2.0
25.960108757019043,,,1880.0,-110.0,1716.0,17.0,39.0,-28.0
25.98067617416382,,,2526.0,286.0,2219.0,18.0,27.0,-20.0
26.001100778579712,,,3016.0,719.0,2427.0,14.0,19.0,-6.0
26.02205991744995,,,3685.0,1596.0,1687.0,-1.0,22.0,14.0
26.04246735572815,,,3922.0,1796.0,1137.0,-14.0,31.0,30.0
26.063074111938477,,,4110.0,1893.0,673.0,-27.0,38.0,53.0
26.08363366127014,,,3590.0,2334.0,-44.0,-29.0,53.0,84.0
26.10389804840088,,,2660.0,2681.0,-197.0,-22.0,64.0,90.0
26.124536752700806,,,919.0,2189.0,342.0,-12.0,66.0,99.0
26.144957304000854,,,79.0,1595.0,392.0,-15.0,52.0,110.0
26.165438175201416,,,-933.0,993.0,62.0,-19.0,42.0,118.0
26.18604350090027,,,-2859.0,46.0,-190.0,-19.0,41.0,119.0
26.20631456375122,,,-3673.0,-440.0,459.0,-15.0,37.0,108.0
26.226885557174683,,,-4125.0,-1031.0,1491.0,-13.0,25.0,98.0
26.247187614440918,,,-4399.0,-1807.0,2578.0,5.0,-4.0,67.0
26.26356601715088,,,-4128.0,-1892.0,2377.0,13.0,-8.0,40.0
26.284234046936035,,,-3710.0,-1639.0,2049.0,19.0,-6.0,13.0
26.304627418518066,,,-2598.0,-419.0,1606.0,26.0,3.0,-18.0
26.325204372406006,,,-1946.0,212.0,1362.0,25.0,5.0,-19.0
26.345670461654663,,,-1390.0,745.0,967.0,22.0,5.0,-14.0
26.36613368988037,,,-800.0,1441.0,-70.0,15.0,10.0,9.0
26.38663673400879,,,-777.0,1572.0,-514.0,12.0,14.0,20.0
26.4072208404541,,,-758.0,1361.0,-951.0,10.0,19.0,26.0
26.427791118621826,,,-767.0,1121.0,-957.0,12.0,19.0,20.0
26.448213577270508,,,-793.0,917.0,-918.0,15.0,17.0,10.0
26.46855926513672,,,-787.0,769.0,-921.0,19.0,15.0,-13.0
26.489184379577637,,,-758.0,985.0,-841.0,20.0,17.0,-23.0
26.50950860977173,,,-617.0,1328.0,-663.0,20.0,21.0,-26.0
26.530181169509888,,,-446.0,2193.0,-489.0,13.0,34.0,-18.0
26.550533533096313,,,-683.0,2746.0,-490.0,11.0,42.0,-10.0
26.571122884750366,,,-1090.0,3271.0,-434.0,9.0,49.0,0.0
26.591389417648315,,,-1757.0,3806.0,265.0,7.0,54.0,39.0
26.61202383041382,,,-1967.0,3630.0,812.0,5.0,50.0,59.0
26.632498025894165,,,-2403.0,2524.0,1777.0,3.0,49.0,69.0
26.652722597122192,,,-2265.0,1759.0,2423.0,5.0,48.0,61.0
26.673214197158813,,,-1884.0,1009.0,3217.0,8.0,43.0,51.0
26.693727254867554,,,-1229.0,126.0,4072.0,19.0,30.0,28.0
26.714128494262695,,,-935.0,27.0,4115.0,20.0,26.0,17.0
26.73478865623474,,,-662.0,72.0,4156.0,17.0,20.0,12.0
26.755517959594727,,,-220.0,672.0,4066.0,6.0,6.0,17.0
26.77588987350464,,,-86.0,1036.0,3824.0,0.0,-2.0,25.0
26.79651379585266,,,18.0,1348.0,3523.0,-8.0,-11.0,33.0
26.817005395889282,,,657.0,1539.0,2445.0,-22.0,-36.0,60.0
26.837547540664673,,,1453.0,1449.0,1521.0,-29.0,-47.0,80.0
26.857999801635742,,,2440.0,1344.0,458.0,-35.0,-60.0,99.0
26.878395318984985,,,3800.0,1433.0,-1218.0,-39.0,-67.0,105.0
26.898990869522095,,,4258.0,1755.0,-1432.0,-37.0,-54.0,85.0
26.919384479522705,,,4037.0,2060.0,-1233.0,-23.0,-13.0,10.0
26.939860582351685,,,3729.0,2313.0,-613.0,-20.0,14.0,-14.0
26.960443019866943,,,3937.0,2756.0,453.0,-20.0,30.0,-26.0
26.980950593948364,,,5034.0,3707.0,1645.0,-25.0,-3.0,-18.0
27.001214027404785,,,5131.0,4199.0,969.0,-28.0,-14.0,-5.0
27.021722078323364,,,4832.0,4571.0,-234.0,-24.0,-12.0,-5.0
27.042083263397217,,,3754.0,4721.0,-2936.0,-10.0,-2.0,-14.0
27.062675714492798,,,3385.0,4663.0,-4024.0,-4.0,-6.0,-8.0
27.083237886428833,,,3109.0,4501.0,-4874.0,3.0,-19.0,4.0
27.103679180145264,,,2228.0,3543.0,-6103.0,13.0,-42.0,29.0
27.12397861480713,,,1492.0,2720.0,-6514.0,16.0,-45.0,33.0
27.144746780395508,,,377.0,544.0,-6842.0,20.0,-22.0,29.0
27.165199518203735,,,147.0,-796.0,-6692.0,17.0,-4.0,12.0
27.185566186904907,,,-132.0,-1928.0,-6303.0,9.0,12.0,-20.0
27.20599865913391,,,-1341.0,-2682.0,-4037.0,-1.0,70.0,-75.0
27.226540088653564,,,-1340.0,-1963.0,-834.0,8.0,111.0,-96.0
27.24703574180603,,,2232.0,-594.0,3644.0,19.0,68.0,-123.0
27.267319679260254,,,3301.0,-49.0,6529.0,2.0,-76.0,0.0
27.288090229034424,,,2758.0,-106.0,5628.0,-6.0,-56.0,-9.0
27.308725595474243,,,3135.0,-216.0,5738.0,-21.0,-20.0,-32.0
27.329225301742554,,,4765.0,1327.0,7414.0,-47.0,5.0,-40.0
27.34550380706787,,,5028.0,2851.0,7358.0,-50.0,1.0,-25.0
27.366260528564453,,,5150.0,4173.0,7064.0,-55.0,-8.0,-1.0
27.386698246002197,,,4903.0,4975.0,6240.0,-55.0,-31.0,19.0
27.40706777572632,,,5886.0,5048.0,7283.0,-39.0,-47.0,18.0
27.427685499191284,,,4707.0,5282.0,5928.0,21.0,-44.0,-16.0
27.448164224624634,,,4244.0,4300.0,3636.0,22.0,-36.0,-22.0
27.46857190132141,,,3865.0,3056.0,1646.0,9.0,-25.0,-38.0
27.489163637161255,,,3138.0,1810.0,302.0,-26.0,2.0,-53.0
27.509546518325806,,,2907.0,2091.0,975.0,-22.0,0.0,-47.0
27.530062675476074,,,2962.0,2377.0,1854.0,-6.0,-17.0,-31.0
27.550572633743286,,,2950.0,1809.0,1575.0,6.0,-41.0,-10.0
27.5709810256958,,,2754.0,1355.0,825.0,5.0,-32.0,-21.0
27.59137725830078,,,2392.0,940.0,301.0,-2.0,-19.0,-35.0
27.611963987350464,,,1645.0,905.0,609.0,-12.0,0.0,-44.0
27.632652282714844,,,1479.0,1022.0,1220.0,-9.0,2.0,-36.0
27.65296769142151,,,1400.0,715.0,1666.0,-3.0,-5.0,-14.0
27.673397302627563,,,1250.0,527.0,1329.0,-5.0,-5.0,-9.0
27.693994998931885,,,1118.0,388.0,932.0,-6.0,1.0,-9.0
27.714351892471313,,,1101.0,348.0,707.0,-11.0,12.0,-7.0
27.735113859176636,,,1114.0,473.0,655.0,-9.0,18.0,-2.0
27.75525951385498,,,1114.0,600.0,660.0,-7.0,26.0,5.0
27.775848865509033,,,914.0,593.0,823.0,-4.0,36.0,21.0
27.796327114105225,,,815.0,393.0,826.0,-6.0,38.0,32.0
27.816861867904663,,,691.0,178.0,736.0,-9.0,39.0,42.0
27.837316036224365,,,341.0,-81.0,638.0,-9.0,44.0,57.0
27.85796046257019,,,144.0,-219.0,696.0,-7.0,46.0,62.0
27.878060817718506,,,-92.0,-473.0,739.0,-6.0,47.0,65.0
27.89858078956604,,,-462.0,-1294.0,865.0,-11.0,47.0,60.0
27.919017553329468,,,-554.0,-1674.0,955.0,-13.0,44.0,51.0
27.93961501121521,,,-518.0,-2078.0,995.0,-11.0,35.0,28.0
27.959994792938232,,,-414.0,-2080.0,930.0,-7.0,31.0,15.0
27.980640172958374,,,-291.0,-1964.0,872.0,-2.0,27.0,3.0
28.000986099243164,,,42.0,-1423.0,1047.0,5.0,14.0,-18.0
28.021475076675415,,,250.0,-1012.0,1102.0,8.0,6.0,-24.0
28.042065858840942,,,502.0,-487.0,1035.0,8.0,1.0,-29.0
28.062424421310425,,,1088.0,840.0,804.0,8.0,-1.0,-34.0
28.082791805267334,,,1212.0,1527.0,866.0,10.0,-2.0,-40.0
28.103403091430664,,,1295.0,2267.0,1105.0,12.0,-2.0,-47.0
28.123802423477173,,,2325.0,3702.0,1671.0,12.0,-16.0,-33.0
28.14429235458374,,,2723.0,4143.0,1588.0,7.0,-24.0,-21.0
28.16523313522339,,,3047.0,4687.0,902.0,1.0,-22.0,-12.0
28.18563151359558,,,3012.0,4886.0,393.0,0.0,-14.0,-13.0
28.20611548423767,,,2856.0,5022.0,10.0,0.0,-8.0,-11.0
28.226869106292725,,,2163.0,4983.0,138.0,0.0,2.0,7.0
28.24713444709778,,,1848.0,4786.0,428.0,1.0,3.0,22.0
28.267436265945435,,,1648.0,4486.0,578.0,0.0,1.0,40.0
28.28784704208374,,,1277.0,3804.0,226.0,-7.0,2.0,63.0
28.308335065841675,,,1230.0,3413.0,50.0,-11.0,5.0,67.0
28.328837871551514,,,1028.0,2823.0,-178.0,-15.0,18.0,73.0
28.3493013381958,,,946.0,2583.0,-121.0,-14.0,28.0,75.0
28.369596481323242,,,852.0,2367.0,18.0,-11.0,33.0,78.0
28.390065908432007,,,590.0,1877.0,-45.0,-3.0,38.0,83.0
28.410495281219482,,,260.0,1605.0,-197.0,0.0,37.0,81.0
28.4311945438385,,,-418.0,1352.0,-122.0,3.0,36.0,75.0
28.45161771774292,,,-1469.0,790.0,1737.0,8.0,31.0,72.0
28.47224760055542,,,-1582.0,221.0,2783.0,7.0,16.0,70.0
28.492724657058716,,,-1520.0,-412.0,2905.0,-1.0,4.0,61.0
28.513148069381714,,,-1459.0,-947.0,1801.0,-11.0,3.0,21.0
28.533623456954956,,,-1478.0,-850.0,1590.0,-13.0,1.0,5.0
28.55414342880249,,,-1596.0,-235.0,1536.0,-8.0,-14.0,-7.0
28.57465171813965,,,-1683.0,222.0,1421.0,-6.0,-17.0,-4.0
28.595072746276855,,,-1703.0,674.0,1195.0,-7.0,-18.0,1.0
28.61563491821289,,,-1425.0,1253.0,485.0,-11.0,-17.0,16.0
28.63614296913147,,,-1104.0,1219.0,163.0,-12.0,-16.0,20.0
28.656579732894897,,,-727.0,1100.0,-113.0,-12.0,-15.0,18.0
28.67723298072815,,,36.0,1012.0,-514.0,-6.0,-12.0,4.0
28.69801902770996,,,372.0,1131.0,-583.0,-3.0,-10.0,-5.0
28.71846032142639,,,564.0,1319.0,-588.0,1.0,-8.0,-13.0
28.73897671699524,,,1047.0,2151.0,-292.0,6.0,1.0,-18.0
28.759427309036255,,,1461.0,2709.0,-43.0,9.0,4.0,-13.0
28.77966594696045,,,1673.0,2995.0,32.0,12.0,7.0,-6.0
28.800384759902954,,,2010.0,3021.0,317.0,10.0,14.0,-9.0
28.82081437110901,,,1849.0,3185.0,570.0,14.0,15.0,-18.0
28.841114044189453,,,1173.0,4001.0,964.0,30.0,23.0,-30.0
28.86158299446106,,,947.0,4361.0,1224.0,32.0,27.0,-26.0
28.882086992263794,,,723.0,4474.0,1481.0,27.0,27.0,-18.0
28.902620315551758,,,530.0,4138.0,1544.0,2.0,24.0,5.0
28.92294478416443,,,606.0,3914.0,1336.0,-10.0,22.0,16.0
28.94351553916931,,,725.0,3802.0,1131.0,-16.0,20.0,23.0
28.963932275772095,,,901.0,3634.0,823.0,-13.0,17.0,28.0
28.984712839126587,,,1007.0,3503.0,812.0,-10.0,18.0,30.0
29.005205631256104,,,1071.0,3210.0,1050.0,-8.0,20.0,30.0
29.025466680526733,,,1034.0,2718.0,1515.0,-7.0,21.0,27.0
29.045944213867188,,,795.0,1793.0,2356.0,-6.0,16.0,10.0
29.066661834716797,,,184.0,1515.0,2113.0,-5.0,6.0,3.0
29.087047815322876,,,-119.0,1300.0,1776.0,-6.0,6.0,0.0
29.10765242576599,,,-287.0,1120.0,1428.0,-7.0,5.0,3.0
29.128080368041992,,,-601.0,1071.0,569.0,-4.0,-5.0,18.0
29.148618936538696,,,-906.0,1237.0,72.0,1.0,-8.0,20.0
29.16494631767273,,,-1308.0,1474.0,-416.0,9.0,-8.0,16.0
29.185351610183716,,,-2344.0,2017.0,-1105.0,24.0,-5.0,8.0
29.206006288528442,,,-2664.0,2181.0,-1296.0,27.0,-5.0,9.0
29.226487159729004,,,-2770.0,2237.0,-1482.0,27.0,-6.0,13.0
29.24689817428589,,,-2801.0,2051.0,-2177.0,24.0,-3.0,23.0
29.26738214492798,,,-2769.0,1770.0,-2363.0,26.0,5.0,30.0
29.287846088409424,,,-2778.0,1211.0,-2116.0,31.0,15.0,38.0
29.308257579803467,,,-2554.0,-783.0,-282.0,42.0,34.0,53.0
29.328956127166748,,,-2121.0,-1948.0,696.0,44.0,37.0,49.0
29.3492329120636,,,-1276.0,-3652.0,1591.0,38.0,31.0,26.0
29.36976671218872,,,-1155.0,-3980.0,1742.0,35.0,31.0,12.0
29.39029836654663,,,-1147.0,-3955.0,2074.0,32.0,32.0,1.0
29.410693883895874,,,-1083.0,-3355.0,3042.0,25.0,29.0,-4.0
29.431190252304077,,,-964.0,-2854.0,3396.0,18.0,27.0,-1.0
29.45155382156372,,,-793.0,-2288.0,3773.0,9.0,25.0,7.0
29.471980810165405,,,27.0,-1089.0,4519.0,-16.0,26.0,38.0
29.492478609085083,,,369.0,-883.0,4664.0,-26.0,26.0,47.0
29.513054370880127,,,795.0,-942.0,4825.0,-36.0,25.0,49.0
29.533416271209717,,,1408.0,-916.0,5002.0,-41.0,16.0,27.0
29.554011583328247,,,1497.0,-465.0,4869.0,-34.0,12.0,6.0
29.574363946914673,,,1524.0,225.0,4503.0,-28.0,7.0,-11.0
29.595011711120605,,,1479.0,1004.0,3907.0,-25.0,2.0,-23.0
29.615407466888428,,,1287.0,1698.0,3155.0,-23.0,-1.0,-33.0
29.635942697525024,,,849.0,3030.0,1795.0,-23.0,-5.0,-48.0
29.656323194503784,,,718.0,3697.0,1407.0,-21.0,-9.0,-50.0
29.67691206932068,,,653.0,4322.0,1205.0,-17.0,-12.0,-49.0
29.69739532470703,,,865.0,5270.0,881.0,-9.0,-11.0,-38.0
29.717929363250732,,,1100.0,5419.0,523.0,-10.0,-10.0,-31.0
29.738341569900513,,,1418.0,5253.0,17.0,-14.0,-9.0,-25.0
29.758918046951294,,,2378.0,4532.0,-933.0,-22.0,-7.0,-14.0
29.779303073883057,,,2862.0,4275.0,-1398.0,-22.0,-8.0,-7.0
29.7998046875,,,3256.0,4110.0,-2010.0,-16.0,-11.0,-1.0
29.820395469665527,,,3489.0,3760.0,-3676.0,-2.0,-18.0,3.0
29.84097456932068,,,3286.0,3455.0,-4509.0,4.0,-22.0,-1.0
29.86152148246765,,,2168.0,2493.0,-5632.0,20.0,-22.0,-24.0
29.882156133651733,,,1330.0,1827.0,-5571.0,26.0,-10.0,-38.0
29.902773141860962,,,654.0,1260.0,-4892.0,30.0,7.0,-47.0
29.923115253448486,,,1314.0,440.0,-661.0,31.0,-4.0,-64.0
29.943557262420654,,,1302.0,-149.0,1479.0,24.0,-53.0,-52.0
29.963934183120728,,,563.0,-421.0,2306.0,21.0,-83.0,-36.0
29.984407901763916,,,-827.0,-155.0,3075.0,24.0,-81.0,-53.0
30.004887342453003,,,-796.0,-151.0,4401.0,20.0,-81.0,-61.0
30.025354146957397,,,-444.0,-351.0,5713.0,6.0,-87.0,-57.0
30.0458824634552,,,346.0,285.0,5823.0,-18.0,-78.0,-40.0
30.066657066345215,,,829.0,863.0,5235.0,-23.0,-61.0,-32.0
30.08712363243103,,,1337.0,1826.0,4305.0,-27.0,-39.0,-10.0
30.107701301574707,,,1264.0,2049.0,3823.0,-21.0,-31.0,-4.0
30.12814211845398,,,1194.0,2117.0,3298.0,-14.0,-21.0,-2.0
30.148627519607544,,,1182.0,2183.0,2423.0,-6.0,0.0,-12.0
30.16918158531189,,,1297.0,2261.0,2160.0,-7.0,5.0,-14.0
30.18973207473755,,,1336.0,2382.0,1880.0,-9.0,7.0,-15.0
30.20986771583557,,,1309.0,2567.0,1193.0,-9.0,14.0,-14.0
30.23046875,,,1339.0,2515.0,986.0,-10.0,15.0,-14.0
30.246907234191895,,,1361.0,2417.0,863.0,-10.0,14.0,-14.0
30.267300844192505,,,1451.0,2300.0,752.0,-14.0,13.0,-12.0
30.288036346435547,,,1508.0,2413.0,647.0,-16.0,16.0,-9.0
30.30837368965149,,,1576.0,2568.0,528.0,-18.0,19.0,-7.0
30.328996419906616,,,1601.0,3068.0,462.0,-21.0,30.0,3.0
30.349510192871094,,,1568.0,3313.0,555.0,-21.0,37.0,11.0
30.36987853050232,,,1525.0,3507.0,694.0,-21.0,43.0,22.0
30.3903329372406,,,1493.0,3626.0,846.0,-21.0,48.0,36.0
30.410987854003906,,,1425.0,3661.0,933.0,-21.0,52.0,50.0
30.43132758140564,,,1126.0,3324.0,941.0,-18.0,61.0,75.0
30.451892137527466,,,885.0,2949.0,934.0,-16.0,67.0,82.0
30.472458124160767,,,577.0,2461.0,1019.0,-13.0,71.0,86.0
30.49298119544983,,,-157.0,1168.0,1720.0,-9.0,74.0,83.0
30.5133273601532,,,-275.0,465.0,2249.0,-10.0,68.0,79.0
30.533930778503418,,,-205.0,-54.0,2477.0,-13.0,55.0,76.0
30.554131507873535,,,-217.0,-295.0,1502.0,-16.0,34.0,64.0
30.574742317199707,,,-477.0,-187.0,940.0,-15.0,29.0,52.0
30.59538197517395,,,-991.0,-247.0,733.0,-11.0,11.0,36.0
30.615883588790894,,,-1324.0,-380.0,851.0,-10.0,-1.0,28.0
30.63616394996643,,,-1833.0,-305.0,1019.0,-8.0,-12.0,18.0
30.656904935836792,,,-2692.0,639.0,1261.0,-3.0,-32.0,9.0
30.6772563457489,,,-2670.0,1243.0,902.0,-4.0,-42.0,15.0
30.697523593902588,,,-2450.0,1670.0,24.0,-6.0,-44.0,14.0
30.718316793441772,,,-1590.0,2189.0,-2207.0,-3.0,-26.0,-1.0
30.73837161064148,,,-1346.0,2388.0,-3051.0,6.0,-13.0,-11.0
30.75909972190857,,,-1345.0,2549.0,-3511.0,21.0,-2.0,-13.0
30.78364634513855,,,-1635.0,2335.0,-3501.0,44.0,16.0,-2.0
30.804179191589355,,,-1730.0,1942.0,-3515.0,50.0,27.0,7.0
30.824594736099243,,,-1591.0,1110.0,-3571.0,49.0,37.0,15.0
30.8452045917511,,,-1572.0,738.0,-3595.0,50.0,38.0,13.0
30.865703582763672,,,-1656.0,336.0,-3568.0,52.0,41.0,6.0
30.886402130126953,,,-2885.0,-719.0,-2668.0,66.0,52.0,-20.0
30.906872987747192,,,-3497.0,-1139.0,-1418.0,77.0,55.0,-33.0
30.927236080169678,,,-3631.0,-1369.0,221.0,82.0,48.0,-33.0
30.94754457473755,,,-3681.0,-1508.0,2191.0,63.0,43.0,-18.0
30.964123725891113,,,-4012.0,-1455.0,2580.0,49.0,53.0,-16.0
30.984707832336426,,,-3928.0,-1537.0,4613.0,33.0,62.0,14.0
31.00513768196106,,,-2975.0,-1791.0,5955.0,27.0,54.0,34.0
31.025510549545288,,,-1862.0,-2135.0,7015.0,22.0,45.0,43.0
31.045849800109863,,,-2.0,-2567.0,7665.0,18.0,46.0,27.0
31.06624126434326,,,538.0,-2267.0,7764.0,16.0,42.0,13.0
31.086859941482544,,,779.0,-1627.0,7805.0,15.0,34.0,3.0
31.107335329055786,,,646.0,-70.0,7657.0,8.0,17.0,10.0
31.13211464881897,,,415.0,484.0,7708.0,2.0,7.0,23.0
31.152554035186768,,,315.0,959.0,7901.0,-6.0,-9.0,41.0
31.173049449920654,,,137.0,1343.0,8175.0,-15.0,-30.0,62.0
31.193539142608643,,,-144.0,1690.0,8071.0,-23.0,-54.0,84.0
31.21403741836548,,,-541.0,1918.0,6362.0,-42.0,-101.0,129.0
31.234539031982422,,,-542.0,1741.0,4842.0,-53.0,-119.0,145.0
31.25509285926819,,,-530.0,1306.0,3091.0,-64.0,-132.0,152.0
31.275329113006592,,,-779.0,243.0,-408.0,-86.0,-156.0,141.0
31.29569149017334,,,-1326.0,-244.0,-2084.0,-93.0,-166.0,120.0
31.31231379508972,,,-2091.0,-592.0,-3480.0,-100.0,-169.0,98.0
31.332582473754883,,,-3751.0,-637.0,-4670.0,-107.0,-140.0,85.0
31.353188037872314,,,-4056.0,-311.0,-3906.0,-112.0,-126.0,91.0
31.3733811378479,,,-3989.0,-95.0,-2698.0,-122.0,-139.0,101.0
31.39402675628662,,,-2951.0,155.0,-2470.0,-149.0,-140.0,113.0
31.414708852767944,,,-1834.0,513.0,-2554.0,-154.0,-119.0,88.0
31.435250282287598,,,-801.0,812.0,-2597.0,-151.0,-90.0,50.0
31.4558265209198,,,-476.0,1491.0,-2727.0,-120.0,-25.0,-45.0
31.47631287574768,,,-1654.0,1922.0,-3159.0,-97.0,9.0,-85.0
31.496724605560303,,,-3646.0,2972.0,-4016.0,-45.0,38.0,-132.0
31.517234086990356,,,-4035.0,3239.0,-5174.0,-38.0,32.0,-160.0
31.537508249282837,,,-4548.0,3574.0,-6601.0,-44.0,26.0,-171.0
31.558059453964233,,,-6234.0,4453.0,-9488.0,-91.0,49.0,-123.0
31.578510761260986,,,-6694.0,5914.0,-10825.0,-119.0,66.0,-110.0
31.599055290222168,,,-5960.0,8298.0,-10772.0,-148.0,75.0,-125.0
31.619498252868652,,,-4866.0,12948.0,-8577.0,-51.0,150.0,-90.0
31.639930248260498,,,-7120.0,12661.0,-7296.0,30.0,240.0,-10.0
31.66038680076599,,,-10534.0,7708.0,1891.0,179.0,287.0,28.0
31.68095850944519,,,-11873.0,3976.0,5638.0,247.0,355.0,86.0
31.70140552520752,,,-9618.0,0.0,8200.0,290.0,404.0,47.0
31.722007036209106,,,5780.0,-2708.0,7019.0,159.0,312.0,-8.0
31.742485523223877,,,8791.0,-2524.0,5993.0,43.0,200.0,38.0
31.762898445129395,,,7810.0,-2003.0,6892.0,-13.0,162.0,61.0
31.78343367576599,,,6462.0,-2307.0,7384.0,-15.0,169.0,58.0
31.80396318435669,,,8861.0,-2835.0,5428.0,-43.0,89.0,37.0
31.82439136505127,,,9900.0,-2747.0,4870.0,-61.0,18.0,34.0
31.844947814941406,,,9398.0,-2661.0,4538.0,-43.0,-77.0,14.0
31.865466356277466,,,8049.0,-2909.0,3692.0,-27.0,-81.0,-15.0
31.88577961921692,,,5507.0,-3959.0,3116.0,-18.0,-66.0,-64.0
31.90612769126892,,,1232.0,-1410.0,4992.0,-40.0,-38.0,-121.0
31.926716089248657,,,-187.0,887.0,5564.0,-32.0,-58.0,-115.0
31.947152614593506,,,-1241.0,2917.0,3652.0,-50.0,-59.0,-93.0
31.96767807006836,,,-914.0,3145.0,1755.0,-69.0,-46.0,-87.0
31.98819351196289,,,-259.0,3261.0,25.0,-75.0,-43.0,-90.0
32.00869011878967,,,1402.0,3186.0,-2385.0,-67.0,-72.0,-94.0
32.029104709625244,,,1771.0,2827.0,-3179.0,-62.0,-97.0,-98.0
32.04969787597656,,,1460.0,2515.0,-3849.0,-58.0,-121.0,-104.0
32.07008385658264,,,305.0,2388.0,-4968.0,-53.0,-144.0,-103.0
32.090625047683716,,,403.0,2412.0,-5374.0,-54.0,-149.0,-97.0
32.11101984977722,,,899.0,2335.0,-5695.0,-58.0,-160.0,-89.0
32.1316659450531,,,1327.0,2095.0,-6063.0,-64.0,-179.0,-85.0
32.152047872543335,,,1324.0,1739.0,-6508.0,-69.0,-197.0,-86.0
32.17263436317444,,,839.0,1385.0,-7375.0,-75.0,-194.0,-76.0
32.193012952804565,,,639.0,1367.0,-7520.0,-75.0,-160.0,-64.0
32.21358346939087,,,346.0,1423.0,-7489.0,-70.0,-109.0,-61.0
32.234039306640625,,,-399.0,1840.0,-5878.0,-49.0,24.0,-52.0
32.2544903755188,,,-875.0,1977.0,-2934.0,-31.0,104.0,-64.0
32.2749457359314,,,-434.0,1554.0,2322.0,-5.0,158.0,-143.0
32.29553294181824,,,2077.0,789.0,7013.0,21.0,98.0,-229.0
32.316017150878906,,,2541.0,164.0,9488.0,36.0,-20.0,-205.0
32.33636713027954,,,1379.0,262.0,10579.0,23.0,-53.0,-167.0
32.35699963569641,,,3663.0,1314.0,13198.0,-4.0,-24.0,-151.0
32.377464294433594,,,5933.0,1265.0,12317.0,-19.0,-35.0,-91.0
32.397937059402466,,,7134.0,1218.0,9526.0,-35.0,-36.0,-35.0
32.41427659988403,,,7368.0,229.0,3526.0,-57.0,-16.0,37.0
32.434802532196045,,,7261.0,-526.0,1569.0,-67.0,-19.0,68.0
32.45515012741089,,,6320.0,-1024.0,-1386.0,-39.0,-25.0,87.0
32.47574234008789,,,5354.0,-1146.0,-2739.0,2.0,-13.0,58.0
32.49612283706665,,,4141.0,-1504.0,-3737.0,48.0,4.0,28.0
32.516822814941406,,,2429.0,-3283.0,-4754.0,78.0,19.0,-17.0
32.537182569503784,,,1990.0,-4373.0,-5108.0,76.0,20.0,-50.0
32.55778908729553,,,1966.0,-5034.0,-5381.0,69.0,12.0,-80.0
32.578219413757324,,,1452.0,-3413.0,-5520.0,63.0,-6.0,-117.0
32.59878134727478,,,623.0,-1677.0,-4907.0,70.0,9.0,-133.0
32.619210958480835,,,-448.0,179.0,-2510.0,85.0,48.0,-142.0
32.639777421951294,,,-369.0,-1490.0,7377.0,92.0,91.0,-198.0
32.660236120224,,,930.0,-4521.0,9732.0,47.0,-41.0,-129.0
32.68081450462341,,,1014.0,-3217.0,7700.0,-30.0,-70.0,-43.0
32.70117449760437,,,1733.0,-2521.0,6266.0,-53.0,-34.0,-50.0
32.72179841995239,,,2175.0,-2485.0,5654.0,-63.0,-12.0,-43.0
32.74216914176941,,,2931.0,-2942.0,5722.0,-51.0,-21.0,-11.0
32.762791872024536,,,3201.0,-2935.0,5374.0,-40.0,-30.0,9.0
32.78317713737488,,,3240.0,-2900.0,4704.0,-35.0,-38.0,24.0
32.803483963012695,,,2712.0,-2696.0,2702.0,-23.0,-39.0,24.0
32.824185371398926,,,2256.0,-2572.0,1571.0,-14.0,-23.0,7.0
32.84472346305847,,,1898.0,-2420.0,616.0,-9.0,-1.0,-11.0
32.865246295928955,,,1835.0,-2043.0,211.0,-2.0,36.0,-33.0
32.8859179019928,,,1994.0,-2154.0,647.0,-2.0,38.0,-31.0
32.90656042098999,,,2108.0,-2400.0,1197.0,-6.0,27.0,-20.0
32.92701435089111,,,1957.0,-2457.0,1897.0,-15.0,1.0,3.0
32.94751691818237,,,1790.0,-2368.0,1916.0,-16.0,-3.0,6.0
32.96810865402222,,,1517.0,-2445.0,1864.0,-16.0,-5.0,6.0
32.98831844329834,,,1336.0,-2524.0,1892.0,-16.0,-10.0,7.0
33.008873462677,,,1192.0,-2465.0,1841.0,-15.0,-11.0,8.0
33.029534578323364,,,1170.0,-2115.0,1528.0,-9.0,-10.0,5.0
33.050026416778564,,,1221.0,-1946.0,1389.0,-8.0,-7.0,4.0
33.07052683830261,,,1238.0,-1821.0,1291.0,-7.0,-3.0,4.0
33.0909206867218,,,1094.0,-1711.0,1076.0,-9.0,5.0,5.0
33.11144709587097,,,940.0,-1740.0,932.0,-10.0,5.0,7.0
33.131901025772095,,,753.0,-1745.0,736.0,-10.0,4.0,10.0
33.15242600440979,,,321.0,-1500.0,184.0,-9.0,1.0,15.0
33.172778367996216,,,51.0,-1349.0,-50.0,-9.0,0.0,16.0
33.19335913658142,,,-769.0,-1329.0,-425.0,-9.0,-2.0,16.0
33.21382141113281,,,-1113.0,-1642.0,-479.0,-10.0,-5.0,16.0
33.23416829109192,,,-1229.0,-2112.0,-485.0,-11.0,-12.0,17.0
33.25487017631531,,,-1116.0,-2951.0,-907.0,-13.0,-31.0,21.0
33.2755401134491,,,-1191.0,-3354.0,-1246.0,-12.0,-35.0,17.0
33.29560852050781,,,-1404.0,-3857.0,-1234.0,-2.0,-36.0,-14.0
33.316131591796875,,,-1151.0,-3791.0,-666.0,4.0,-32.0,-31.0
33.33660840988159,,,-661.0,-3696.0,43.0,6.0,-31.0,-40.0
33.356971740722656,,,222.0,-3716.0,888.0,-11.0,-41.0,-34.0
33.38595414161682,,,575.0,-3519.0,1011.0,-25.0,-43.0,-34.0
33.406001806259155,,,907.0,-3075.0,1277.0,-33.0,-38.0,-40.0
33.426724910736084,,,1124.0,-2715.0,1947.0,-34.0,-34.0,-49.0
33.447113037109375,,,1273.0,-2453.0,2890.0,-32.0,-33.0,-61.0
33.46784996986389,,,1879.0,-1635.0,4538.0,-35.0,-37.0,-75.0
33.488243103027344,,,2366.0,-914.0,5118.0,-39.0,-35.0,-78.0
33.50869154930115,,,3341.0,260.0,5630.0,-46.0,-33.0,-82.0
33.52929663658142,,,3768.0,447.0,5404.0,-49.0,-37.0,-81.0
33.549631118774414,,,4089.0,422.0,4768.0,-50.0,-42.0,-79.0
33.56996941566467,,,4494.0,167.0,3004.0,-38.0,-37.0,-81.0
33.59048414230347,,,4525.0,46.0,2282.0,-26.0,-27.0,-84.0
33.61088585853577,,,4536.0,62.0,1761.0,-12.0,-11.0,-81.0
33.63145995140076,,,4415.0,30.0,1359.0,26.0,33.0,-72.0
33.651891231536865,,,4283.0,-179.0,1290.0,42.0,50.0,-64.0
33.67240071296692,,,4210.0,-330.0,1188.0,56.0,62.0,-52.0
33.688751220703125,,,4359.0,293.0,1436.0,82.0,85.0,-29.0
33.7093460559845,,,4239.0,1022.0,2120.0,97.0,101.0,-16.0
33.729774713516235,,,3551.0,1827.0,3227.0,114.0,124.0,-2.0
33.75034284591675,,,-179.0,2070.0,5865.0,137.0,167.0,12.0
33.77070355415344,,,-2850.0,667.0,6597.0,129.0,163.0,16.0
33.791260957717896,,,-6650.0,-2762.0,5742.0,85.0,94.0,33.0
33.8116991519928,,,-7151.0,-3622.0,4859.0,59.0,83.0,33.0
33.832157611846924,,,-6573.0,-4157.0,4056.0,38.0,78.0,29.0
33.85275745391846,,,-5062.0,-4909.0,2503.0,2.0,81.0,34.0
33.87324023246765,,,-4639.0,-5701.0,1631.0,-22.0,74.0,43.0
33.89366626739502,,,-4005.0,-6386.0,546.0,-47.0,61.0,57.0
33.914226055145264,,,-2433.0,-7233.0,-2239.0,-82.0,31.0,84.0
33.93465781211853,,,-1948.0,-7521.0,-3583.0,-91.0,13.0,82.0
33.95520853996277,,,-1823.0,-7739.0,-4783.0,-98.0,-7.0,68.0
33.9756338596344,,,-2152.0,-7212.0,-6265.0,-94.0,-37.0,16.0
33.99615478515625,,,-2378.0,-6224.0,-6345.0,-88.0,-31.0,-20.0
34.01658582687378,,,-3267.0,-2824.0,-3551.0,-56.0,37.0,-75.0
34.03714919090271,,,-3155.0,-2540.0,401.0,-22.0,97.0,-101.0
34.05783939361572,,,-1320.0,-4850.0,4371.0,-12.0,83.0,-144.0
34.07820677757263,,,323.0,-5246.0,8617.0,-71.0,-68.0,-52.0
34.09885239601135,,,1010.0,-2519.0,7963.0,-66.0,-50.0,-51.0
34.119118452072144,,,1716.0,-278.0,6475.0,-59.0,-26.0,-46.0
34.13981914520264,,,2857.0,1604.0,4399.0,-58.0,-33.0,-34.0
34.16030192375183,,,3082.0,1609.0,3307.0,-53.0,-53.0,-24.0
34.18071889877319,,,2975.0,1369.0,1859.0,-45.0,-71.0,-21.0
34.20122838020325,,,2784.0,640.0,-1246.0,-28.0,-101.0,-23.0
34.22150492668152,,,2813.0,576.0,-2551.0,-16.0,-117.0,-45.0
34.24206495285034,,,3128.0,764.0,-3573.0,-11.0,-136.0,-57.0
34.262596130371094,,,4906.0,1389.0,-5081.0,0.0,-156.0,-71.0
34.28303933143616,,,5755.0,1721.0,-5515.0,-2.0,-149.0,-66.0
34.30340766906738,,,6823.0,2354.0,-6540.0,-36.0,-108.0,-23.0
34.32387900352478,,,7961.0,3070.0,-7328.0,-60.0,-52.0,9.0
34.34442329406738,,,9345.0,4723.0,-7620.0,-44.0,53.0,32.0
34.36478900909424,,,7293.0,7572.0,-2283.0,52.0,224.0,145.0
34.38548731803894,,,3514.0,9336.0,1535.0,95.0,258.0,216.0
34.40596127510071,,,-1615.0,9944.0,3707.0,174.0,269.0,166.0
34.42645859718323,,,-8775.0,6862.0,2083.0,197.0,327.0,82.0
34.446802616119385,,,-9897.0,-5567.0,166.0,87.0,128.0,43.0
34.46749305725098,,,-9102.0,-5164.0,-2651.0,89.0,-15.0,12.0
34.48791813850403,,,-5204.0,-4419.0,-4004.0,87.0,2.0,-24.0
34.50849938392639,,,-2637.0,-3794.0,-3812.0,88.0,-14.0,-27.0
34.528878688812256,,,-343.0,-381.0,-1948.0,79.0,74.0,-53.0
34.54948973655701,,,1030.0,-871.0,-14.0,86.0,93.0,-37.0
34.56980490684509,,,2064.0,-2435.0,1873.0,60.0,24.0,12.0
34.59047317504883,,,2314.0,-1485.0,3362.0,22.0,-65.0,86.0
34.61089897155762,,,1785.0,-357.0,2802.0,28.0,-69.0,93.0
34.63143849372864,,,953.0,810.0,1480.0,28.0,-51.0,92.0
34.652376651763916,,,-213.0,2198.0,-1430.0,40.0,36.0,57.0
34.67281436920166,,,-624.0,2060.0,-2093.0,44.0,81.0,34.0
34.693350076675415,,,-1025.0,569.0,-1560.0,33.0,112.0,11.0
34.713786125183105,,,-1093.0,-217.0,-1018.0,22.0,101.0,12.0
34.73404121398926,,,-1290.0,-643.0,-668.0,10.0,81.0,21.0
34.75443196296692,,,-2309.0,-202.0,-398.0,-11.0,53.0,29.0
34.77480387687683,,,-3072.0,504.0,-234.0,-19.0,55.0,31.0
34.79545831680298,,,-3793.0,947.0,125.0,-23.0,64.0,32.0
34.81593561172485,,,-4341.0,-726.0,1643.0,-41.0,25.0,56.0
34.836419105529785,,,-4826.0,-1456.0,2092.0,-55.0,-11.0,77.0
34.85680365562439,,,-5097.0,-1556.0,1935.0,-64.0,-23.0,88.0
34.87728571891785,,,-4770.0,-1300.0,986.0,-64.0,-4.0,74.0
34.89761185646057,,,-4401.0,-1244.0,828.0,-63.0,8.0,66.0
34.918212890625,,,-3489.0,-906.0,1161.0,-62.0,19.0,66.0
34.938676595687866,,,-2987.0,-538.0,1281.0,-60.0,21.0,71.0
34.95921993255615,,,-2593.0,-193.0,1189.0,-55.0,26.0,76.0
34.9797797203064,,,-2150.0,-46.0,646.0,-47.0,41.0,81.0
35.00030732154846,,,-1911.0,-242.0,426.0,-43.0,45.0,78.0
35.02077388763428,,,-1701.0,-508.0,238.0,-38.0,44.0,72.0
35.041624546051025,,,-1300.0,-874.0,-69.0,-28.0,43.0,50.0
35.062241077423096,,,-1059.0,-762.0,-66.0,-23.0,43.0,36.0
35.082629680633545,,,-837.0,-453.0,66.0,-18.0,42.0,26.0
35.10285830497742,,,-322.0,338.0,446.0,-18.0,36.0,24.0
35.123207330703735,,,97.0,637.0,584.0,-25.0,29.0,29.0
35.14377474784851,,,462.0,931.0,534.0,-33.0,27.0,35.0
35.16433382034302,,,1111.0,1763.0,503.0,-39.0,33.0,45.0
35.1849479675293,,,1473.0,2310.0,777.0,-38.0,33.0,51.0
35.20551252365112,,,1858.0,2968.0,1393.0,-34.0,28.0,53.0
35.225924491882324,,,2142.0,2809.0,1664.0,-33.0,26.0,51.0
35.24652886390686,,,2642.0,2548.0,1905.0,-31.0,23.0,49.0
35.266974687576294,,,3646.0,2415.0,1967.0,-21.0,17.0,45.0
35.28744912147522,,,3962.0,2467.0,1729.0,-14.0,21.0,41.0
35.3078179359436,,,4148.0,2500.0,1444.0,-10.0,28.0,35.0
35.32834243774414,,,4348.0,2733.0,1019.0,-6.0,35.0,29.0
35.34878611564636,,,4252.0,2947.0,751.0,-4.0,34.0,27.0
35.369423389434814,,,3926.0,3181.0,384.0,-3.0,35.0,21.0
35.38981914520264,,,3284.0,3648.0,-422.0,-3.0,45.0,10.0
35.410271644592285,,,2983.0,3829.0,-741.0,-5.0,43.0,9.0
35.42673468589783,,,1908.0,4242.0,-1104.0,-10.0,33.0,18.0
35.44715213775635,,,1172.0,4399.0,-1029.0,-10.0,30.0,24.0
35.467626333236694,,,511.0,4482.0,-688.0,-9.0,27.0,31.0
35.48820614814758,,,-292.0,4275.0,578.0,-6.0,12.0,51.0
35.50853252410889,,,-725.0,3959.0,987.0,-6.0,6.0,66.0
35.52914905548096,,,-1472.0,3579.0,1138.0,-6.0,6.0,74.0
35.549739599227905,,,-3019.0,2742.0,1893.0,0.0,14.0,73.0
35.57006621360779,,,-3151.0,2211.0,2721.0,1.0,6.0,75.0
35.59069037437439,,,-2982.0,1608.0,3500.0,2.0,-7.0,77.0
35.61128044128418,,,-2358.0,381.0,3633.0,6.0,-22.0,58.0
35.63172125816345,,,-2087.0,-51.0,3196.0,7.0,-18.0,34.0
35.6520574092865,,,-1892.0,-172.0,3035.0,9.0,-16.0,10.0
35.67265844345093,,,-1956.0,630.0,3226.0,11.0,-22.0,-14.0
35.69324278831482,,,-1886.0,1241.0,3197.0,9.0,-25.0,-8.0
35.71365189552307,,,-1394.0,2196.0,2405.0,-1.0,-24.0,20.0
35.73404383659363,,,-1005.0,2486.0,1697.0,-9.0,-24.0,40.0
35.75452542304993,,,-667.0,2658.0,1027.0,-17.0,-23.0,60.0
35.775023460388184,,,443.0,2906.0,-97.0,-34.0,-24.0,101.0
35.799678564071655,,,1063.0,2788.0,-721.0,-39.0,-32.0,120.0
35.82008242607117,,,1762.0,1506.0,-2250.0,-46.0,-49.0,123.0
35.840529680252075,,,2309.0,684.0,-2618.0,-47.0,-47.0,109.0
35.860899686813354,,,2982.0,-266.0,-2530.0,-44.0,-42.0,83.0
35.881455183029175,,,3412.0,-1637.0,-1705.0,-30.0,-25.0,-22.0
35.901850938797,,,2868.0,-1539.0,-1298.0,-23.0,-13.0,-69.0
35.92239546775818,,,2225.0,-962.0,-765.0,-14.0,-3.0,-101.0
35.9429566860199,,,1269.0,379.0,331.0,9.0,4.0,-134.0
35.96344232559204,,,824.0,837.0,694.0,11.0,8.0,-142.0
35.98387575149536,,,458.0,1372.0,1000.0,8.0,9.0,-145.0
36.00435423851013,,,-57.0,2558.0,1141.0,-4.0,8.0,-137.0
36.024824380874634,,,-203.0,3134.0,890.0,-8.0,8.0,-131.0
36.045352935791016,,,-1.0,4086.0,31.0,-18.0,5.0,-107.0
36.065831422805786,,,307.0,4417.0,-598.0,-25.0,0.0,-89.0
36.08627915382385,,,619.0,4602.0,-1336.0,-28.0,-3.0,-72.0
36.10677099227905,,,1331.0,4592.0,-2904.0,-26.0,-5.0,-44.0
36.12723135948181,,,1865.0,4484.0,-3576.0,-23.0,-3.0,-32.0
36.143710136413574,,,2416.0,4335.0,-4146.0,-18.0,-2.0,-21.0
36.16425657272339,,,3030.0,4102.0,-4968.0,-11.0,6.0,-5.0
36.18464422225952,,,2662.0,4146.0,-5084.0,-7.0,18.0,-1.0
36.20528435707092,,,1694.0,4221.0,-4817.0,-1.0,40.0,2.0
36.22558808326721,,,-1242.0,4263.0,-2183.0,18.0,124.0,18.0
36.24602770805359,,,-602.0,3321.0,1756.0,25.0,144.0,14.0
36.26634764671326,,,1273.0,1970.0,4932.0,11.0,59.0,30.0
36.28693628311157,,,2075.0,-1612.0,6724.0,-11.0,5.0,93.0
36.30737543106079,,,2599.0,-2577.0,5813.0,-1.0,23.0,55.0
36.327855825424194,,,3560.0,-3589.0,4472.0,11.0,50.0,-20.0
36.3484787940979,,,3658.0,-3543.0,3843.0,25.0,52.0,-52.0
36.36892509460449,,,3467.0,-3067.0,3106.0,32.0,49.0,-71.0
36.389424085617065,,,2802.0,-1673.0,2263.0,31.0,40.0,-79.0
36.409897804260254,,,2680.0,-1079.0,2316.0,32.0,40.0,-80.0
36.43039894104004,,,2764.0,-587.0,2395.0,34.0,36.0,-76.0
36.451026916503906,,,2913.0,123.0,1768.0,17.0,23.0,-59.0
36.47151970863342,,,3029.0,420.0,1318.0,10.0,12.0,-53.0
36.49182438850403,,,3052.0,643.0,995.0,8.0,4.0,-50.0
36.512489318847656,,,3257.0,957.0,973.0,15.0,-8.0,-46.0
36.532795429229736,,,3488.0,930.0,1067.0,17.0,-20.0,-38.0
36.55353832244873,,,3570.0,803.0,696.0,15.0,-37.0,-25.0
36.57400894165039,,,3573.0,778.0,386.0,13.0,-39.0,-24.0
36.594505071640015,,,3643.0,753.0,142.0,10.0,-39.0,-26.0
36.61507606506348,,,3772.0,1144.0,39.0,13.0,-35.0,-38.0
36.635657787323,,,3749.0,1607.0,167.0,18.0,-31.0,-42.0
36.65609884262085,,,3595.0,2056.0,347.0,24.0,-25.0,-45.0
36.67683172225952,,,3307.0,2531.0,678.0,25.0,-16.0,-45.0
36.69699454307556,,,3175.0,2617.0,804.0,20.0,-13.0,-42.0
36.7176194190979,,,3145.0,2648.0,938.0,15.0,-12.0,-35.0
36.737905740737915,,,3014.0,2578.0,1057.0,4.0,-18.0,-13.0
36.75854134559631,,,2858.0,2526.0,1059.0,1.0,-19.0,-3.0
36.77911853790283,,,2745.0,2412.0,1092.0,-3.0,-19.0,6.0
36.79949712753296,,,2550.0,2088.0,1087.0,-9.0,-16.0,22.0
36.82000184059143,,,2437.0,1880.0,978.0,-12.0,-13.0,27.0
36.84049320220947,,,2313.0,1638.0,825.0,-14.0,-9.0,29.0
36.860955476760864,,,2150.0,1359.0,714.0,-15.0,-5.0,28.0
36.88150429725647,,,1862.0,1087.0,708.0,-16.0,-2.0,26.0
36.9020299911499,,,1234.0,597.0,1362.0,-14.0,2.0,26.0
36.92252326011658,,,997.0,279.0,1916.0,-12.0,0.0,31.0
36.94289517402649,,,755.0,-80.0,2315.0,-11.0,-4.0,38.0
36.96340370178223,,,180.0,-651.0,2283.0,-16.0,-6.0,40.0
36.98397994041443,,,-80.0,-767.0,2046.0,-18.0,-4.0,35.0
37.00446557998657,,,-233.0,-766.0,1799.0,-19.0,-3.0,32.0
37.0249297618866,,,-387.0,-450.0,1047.0,-18.0,-4.0,27.0
37.04533815383911,,,-421.0,-240.0,604.0,-17.0,-3.0,25.0
37.06586694717407,,,-553.0,171.0,-100.0,-16.0,-2.0,23.0
37.08631157875061,,,-666.0,383.0,-337.0,-16.0,-2.0,23.0
37.10643458366394,,,-781.0,571.0,-495.0,-16.0,-2.0,24.0
37.127053022384644,,,-1041.0,648.0,-566.0,-16.0,-6.0,30.0
37.14760160446167,,,-1187.0,522.0,-556.0,-15.0,-9.0,31.0
37.17218065261841,,,-1343.0,365.0,-521.0,-15.0,-12.0,29.0
37.19292712211609,,,-1504.0,211.0,-433.0,-13.0,-15.0,25.0
37.2136709690094,,,-1664.0,59.0,-265.0,-12.0,-17.0,20.0
37.23366665840149,,,-1741.0,-237.0,244.0,-8.0,-22.0,8.0
37.254446029663086,,,-1639.0,-391.0,466.0,-8.0,-24.0,1.0
37.27480125427246,,,-1167.0,-384.0,656.0,-9.0,-23.0,-10.0
37.295175313949585,,,-881.0,-241.0,615.0,-8.0,-19.0,-15.0
37.31547021865845,,,-606.0,-88.0,577.0,-7.0,-14.0,-18.0
37.33594799041748,,,-132.0,131.0,643.0,-3.0,-3.0,-21.0
37.356451749801636,,,71.0,237.0,727.0,-1.0,3.0,-21.0
37.376890420913696,,,267.0,368.0,811.0,0.0,7.0,-19.0
37.39726281166077,,,527.0,636.0,816.0,1.0,14.0,-10.0
37.41811394691467,,,617.0,684.0,748.0,1.0,17.0,-7.0
37.43851947784424,,,654.0,701.0,635.0,0.0,19.0,-4.0
37.459070444107056,,,593.0,735.0,401.0,1.0,22.0,-6.0
37.479496002197266,,,526.0,761.0,362.0,0.0,23.0,-9.0
37.50003457069397,,,314.0,915.0,552.0,-2.0,21.0,-14.0
37.52041292190552,,,218.0,1042.0,748.0,-5.0,18.0,-14.0
37.54091787338257,,,133.0,1189.0,943.0,-8.0,14.0,-13.0
37.561336278915405,,,96.0,1510.0,1277.0,-16.0,6.0,-6.0
37.58185315132141,,,149.0,1643.0,1417.0,-20.0,2.0,-2.0
37.602291107177734,,,229.0,1743.0,1571.0,-23.0,0.0,2.0
37.622905254364014,,,446.0,1886.0,1873.0,-26.0,-3.0,12.0
37.64341163635254,,,584.0,1889.0,1988.0,-26.0,-3.0,17.0
37.6639461517334,,,749.0,1847.0,2068.0,-25.0,-2.0,21.0
37.68441295623779,,,1146.0,1645.0,1989.0,-22.0,3.0,25.0
37.70501661300659,,,1340.0,1538.0,1861.0,-20.0,6.0,26.0
37.72570848464966,,,1460.0,1471.0,1658.0,-17.0,10.0,26.0
37.746176958084106,,,1622.0,1472.0,1315.0,-10.0,19.0,27.0
37.7665057182312,,,1687.0,1518.0,1206.0,-6.0,22.0,28.0
37.787158250808716,,,1658.0,1505.0,868.0,0.0,26.0,30.0
37.80770993232727,,,1631.0,1433.0,703.0,2.0,27.0,29.0
37.82820415496826,,,1590.0,1343.0,573.0,4.0,26.0,27.0
37.84848690032959,,,1478.0,1159.0,349.0,7.0,24.0,21.0
37.86913514137268,,,1448.0,1117.0,209.0,8.0,23.0,17.0
37.88570594787598,,,1395.0,1100.0,90.0,9.0,23.0,15.0
37.906063079833984,,,1233.0,1132.0,152.0,11.0,21.0,11.0
37.92648434638977,,,1162.0,1127.0,355.0,10.0,19.0,10.0
37.947078227996826,,,1116.0,1123.0,566.0,8.0,17.0,9.0
37.96751070022583,,,1049.0,1185.0,854.0,3.0,13.0,10.0
37.9879891872406,,,1034.0,1284.0,974.0,1.0,12.0,12.0
38.008397817611694,,,997.0,1504.0,1130.0,-1.0,10.0,19.0
38.028937578201294,,,956.0,1562.0,1182.0,-3.0,11.0,22.0
38.04946231842041,,,930.0,1589.0,1230.0,-4.0,12.0,25.0
38.06955885887146,,,841.0,1630.0,1316.0,-6.0,14.0,30.0
38.090088844299316,,,755.0,1633.0,1338.0,-6.0,14.0,32.0
38.11049151420593,,,648.0,1627.0,1340.0,-5.0,14.0,34.0
38.13104462623596,,,443.0,1593.0,1343.0,-5.0,12.0,38.0
38.151676654815674,,,398.0,1562.0,1286.0,-5.0,10.0,40.0
38.17211675643921,,,384.0,1513.0,1122.0,-5.0,8.0,42.0
38.19241547584534,,,342.0,1340.0,610.0,-5.0,5.0,42.0
38.21308255195618,,,278.0,1219.0,384.0,-4.0,4.0,40.0
38.23368978500366,,,206.0,1094.0,206.0,-3.0,3.0,35.0
38.25423455238342,,,-84.0,889.0,-22.0,-3.0,1.0,23.0
38.27469444274902,,,-395.0,1056.0,-22.0,-3.0,-2.0,14.0
38.29517412185669,,,-605.0,2250.0,-68.0,-5.0,-5.0,13.0
38.3198082447052,,,-591.0,2959.0,-503.0,-7.0,-6.0,18.0
38.34028363227844,,,-809.0,3424.0,-1266.0,-10.0,-6.0,20.0
38.36078095436096,,,-1317.0,3786.0,-2948.0,-19.0,-4.0,18.0
38.381290912628174,,,-1409.0,3925.0,-3496.0,-18.0,-2.0,16.0
38.4018440246582,,,-1595.0,3979.0,-3891.0,-5.0,1.0,17.0
38.422269344329834,,,-1618.0,3737.0,-3840.0,1.0,3.0,19.0
38.442909955978394,,,-1672.0,3268.0,-3731.0,7.0,7.0,22.0
38.46328139305115,,,-1988.0,2029.0,-2967.0,22.0,19.0,21.0
38.48366355895996,,,-2119.0,1562.0,-2002.0,34.0,20.0,27.0
38.50414824485779,,,-2278.0,1049.0,-710.0,46.0,16.0,30.0
38.52481007575989,,,-2309.0,359.0,718.0,54.0,10.0,26.0
38.54527139663696,,,-2051.0,-525.0,1988.0,53.0,5.0,16.0
38.56576943397522,,,-1507.0,-1386.0,2919.0,47.0,2.0,2.0
38.58624625205994,,,-182.0,-2628.0,3939.0,33.0,4.0,-35.0
38.60245704650879,,,305.0,-2728.0,4096.0,26.0,7.0,-56.0
38.62307286262512,,,529.0,-2500.0,4120.0,26.0,10.0,-74.0
38.64336943626404,,,209.0,-1748.0,4262.0,29.0,17.0,-92.0
38.663933992385864,,,-259.0,-1255.0,4696.0,28.0,20.0,-92.0
38.68437099456787,,,-1138.0,-47.0,6182.0,18.0,7.0,-63.0
38.70493221282959,,,-1311.0,343.0,6815.0,10.0,-12.0,-33.0
38.72582983970642,,,-1376.0,450.0,7016.0,-5.0,-32.0,-1.0
38.74609017372131,,,-1377.0,368.0,5898.0,-31.0,-57.0,50.0
38.76646041870117,,,-1199.0,268.0,4928.0,-41.0,-62.0,67.0
38.786946535110474,,,-971.0,77.0,3914.0,-50.0,-66.0,75.0
38.80736327171326,,,-592.0,-483.0,2208.0,-58.0,-64.0,72.0
38.82796287536621,,,-163.0,-830.0,1758.0,-58.0,-62.0,61.0
38.84848999977112,,,403.0,-1125.0,1342.0,-53.0,-58.0,37.0
38.86901831626892,,,1064.0,-885.0,-312.0,-29.0,-39.0,-26.0
38.88925576210022,,,1093.0,-158.0,-1193.0,-18.0,-35.0,-53.0
38.90979218482971,,,-112.0,2305.0,-2619.0,9.0,-33.0,-87.0
38.93024826049805,,,-695.0,3862.0,-2966.0,25.0,-16.0,-85.0
38.95076870918274,,,-635.0,5433.0,-2902.0,38.0,12.0,-74.0
38.971226930618286,,,1654.0,7273.0,-2125.0,49.0,35.0,-35.0
38.99178433418274,,,2995.0,7257.0,-1961.0,43.0,19.0,1.0
39.01210808753967,,,3801.0,6980.0,-2086.0,34.0,-8.0,30.0
39.03296160697937,,,3550.0,6520.0,-3148.0,38.0,-51.0,58.0
39.053375005722046,,,2800.0,6493.0,-3804.0,53.0,-59.0,55.0
39.073803186416626,,,1631.0,6447.0,-4383.0,72.0,-63.0,37.0
39.09429931640625,,,-2099.0,5368.0,-4698.0,110.0,-31.0,3.0
39.1147186756134,,,-4260.0,4153.0,-4221.0,131.0,21.0,-11.0
39.13527846336365,,,-6907.0,2059.0,-3084.0,150.0,104.0,-36.0
39.155736207962036,,,-3009.0,-3481.0,4685.0,173.0,296.0,-175.0
39.17607879638672,,,1933.0,-4619.0,7202.0,116.0,-103.0,-135.0
39.19670557975769,,,804.0,-6648.0,6714.0,62.0,-105.0,-11.0
39.217459201812744,,,1024.0,-5800.0,7087.0,78.0,-90.0,-32.0
39.237839221954346,,,882.0,-5341.0,8101.0,82.0,-87.0,-16.0
39.25821852684021,,,337.0,-3613.0,8196.0,113.0,-81.0,8.0
39.27881932258606,,,38.0,-3230.0,7351.0,106.0,-94.0,33.0
39.29936218261719,,,-251.0,-3195.0,6185.0,76.0,-120.0,63.0
39.31972312927246,,,-1459.0,-3260.0,4523.0,54.0,-130.0,87.0
39.34003305435181,,,-1564.0,-4074.0,4176.0,73.0,-121.0,75.0
39.360785484313965,,,-777.0,-5290.0,3863.0,82.0,-126.0,77.0
39.38126468658447,,,154.0,-5347.0,1898.0,54.0,-161.0,97.0
39.401888370513916,,,603.0,-4282.0,954.0,33.0,-156.0,87.0
39.42213797569275,,,1786.0,-2073.0,-374.0,-3.0,-122.0,74.0
39.44255757331848,,,2416.0,-1483.0,-980.0,-19.0,-112.0,71.0
39.46328663825989,,,2772.0,-1161.0,-1523.0,-31.0,-109.0,62.0
39.483495473861694,,,2105.0,-259.0,-2859.0,-37.0,-101.0,40.0
39.50400900840759,,,1556.0,281.0,-3515.0,-31.0,-85.0,31.0
39.52455425262451,,,1172.0,673.0,-3974.0,-23.0,-68.0,26.0
39.54520344734192,,,1064.0,583.0,-4633.0,-13.0,-39.0,20.0
39.56569027900696,,,1196.0,37.0,-4874.0,-14.0,-30.0,14.0
39.58620262145996,,,1323.0,-647.0,-4976.0,-17.0,-25.0,8.0
39.60668873786926,,,1488.0,-1802.0,-5147.0,-26.0,-25.0,-13.0
39.62719678878784,,,1516.0,-2087.0,-5311.0,-31.0,-23.0,-29.0
39.64769196510315,,,1491.0,-2240.0,-5440.0,-36.0,-16.0,-48.0
39.668050050735474,,,1201.0,-2624.0,-4882.0,-47.0,1.0,-80.0
39.6846284866333,,,856.0,-2738.0,-4210.0,-54.0,8.0,-87.0
39.70494747161865,,,-236.0,-2413.0,-2702.0,-68.0,26.0,-91.0
39.7295401096344,,,-956.0,-1927.0,-2219.0,-77.0,35.0,-97.0
39.74988412857056,,,-1589.0,-1407.0,-1754.0,-88.0,48.0,-98.0
39.770339012145996,,,-2126.0,-968.0,-954.0,-99.0,67.0,-98.0
39.79075622558594,,,-2689.0,-453.0,168.0,-105.0,79.0,-104.0
39.811113595962524,,,-3556.0,288.0,1980.0,-120.0,80.0,-103.0
39.83184742927551,,,-3638.0,11.0,2589.0,-132.0,66.0,-95.0
39.85243344306946,,,-3423.0,-1128.0,3663.0,-148.0,18.0,-93.0
39.87302613258362,,,-4236.0,-409.0,5742.0,-171.0,-40.0,-71.0
39.89345121383667,,,-3928.0,547.0,6260.0,-165.0,-32.0,-84.0
39.9139621257782,,,-3327.0,1037.0,6162.0,-158.0,-42.0,-84.0
39.93435978889465,,,-2524.0,2305.0,5557.0,-149.0,-62.0,-82.0
39.95498585700989,,,-1650.0,3086.0,5790.0,-144.0,-65.0,-77.0
39.975090742111206,,,-272.0,3769.0,6239.0,-133.0,-64.0,-68.0
39.99561548233032,,,2388.0,4831.0,6328.0,-127.0,-57.0,-37.0
40.01588010787964,,,3374.0,4996.0,5786.0,-135.0,-57.0,-14.0
40.03650712966919,,,5354.0,4987.0,4592.0,-144.0,-38.0,33.0
40.05711364746094,,,6237.0,4959.0,3985.0,-133.0,-27.0,57.0
40.077372789382935,,,6494.0,4885.0,3168.0,-114.0,-13.0,84.0
40.097970962524414,,,4485.0,4064.0,1179.0,-83.0,5.0,116.0
40.11844086647034,,,2877.0,3228.0,436.0,-74.0,7.0,123.0
40.138901233673096,,,1144.0,2135.0,28.0,-69.0,4.0,120.0
40.15946865081787,,,-1053.0,-418.0,-155.0,-53.0,-18.0,93.0
40.17987322807312,,,-1241.0,-1200.0,-425.0,-31.0,-19.0,60.0
40.20043730735779,,,-912.0,-1394.0,-668.0,0.0,-12.0,8.0
40.22084712982178,,,25.0,-1439.0,-342.0,34.0,10.0,-72.0
40.2414026260376,,,760.0,-1749.0,164.0,45.0,2.0,-81.0
40.26179838180542,,,2099.0,-1639.0,394.0,68.0,0.0,-94.0
40.282366037368774,,,2805.0,-1218.0,513.0,76.0,8.0,-101.0
40.30289888381958,,,3418.0,-799.0,1064.0,78.0,16.0,-105.0
40.32337832450867,,,4343.0,-606.0,3298.0,74.0,26.0,-93.0
40.34381294250488,,,4661.0,-945.0,4278.0,72.0,20.0,-70.0
40.36435103416443,,,4811.0,-1113.0,4542.0,68.0,13.0,-42.0
40.38483691215515,,,4881.0,-1084.0,3441.0,52.0,11.0,-4.0
40.40532326698303,,,4766.0,-1047.0,2666.0,45.0,13.0,7.0
40.425785064697266,,,4514.0,-1047.0,1937.0,43.0,16.0,18.0
40.446277379989624,,,3453.0,-1458.0,732.0,40.0,29.0,29.0
40.46662402153015,,,2749.0,-1765.0,240.0,36.0,37.0,31.0
40.48730278015137,,,1935.0,-1983.0,-266.0,29.0,45.0,32.0
40.50778651237488,,,-31.0,-2089.0,-980.0,10.0,68.0,23.0
40.52817988395691,,,-1320.0,-2226.0,-818.0,-1.0,73.0,16.0
40.548758029937744,,,-4165.0,-3059.0,912.0,-18.0,55.0,14.0
40.56921052932739,,,-5170.0,-3712.0,2097.0,-22.0,34.0,25.0
40.5896852016449,,,-5460.0,-4009.0,2831.0,-21.0,9.0,41.0
40.61011624336243,,,-5180.0,-3151.0,2270.0,-17.0,-18.0,52.0
40.63069725036621,,,-5266.0,-2877.0,2037.0,-16.0,-21.0,41.0
40.647040605545044,,,-5333.0,-2902.0,2041.0,-23.0,-27.0,32.0
40.66754603385925,,,-4573.0,-2749.0,1683.0,-43.0,-33.0,13.0
40.68789076805115,,,-3892.0,-2541.0,1374.0,-48.0,-27.0,-2.0
40.708580493927,,,-3081.0,-2227.0,1216.0,-49.0,-18.0,-16.0
40.72897171974182,,,-1495.0,-1184.0,1263.0,-38.0,-8.0,-22.0
40.749576568603516,,,-860.0,-616.0,1325.0,-31.0,-6.0,-16.0
40.770047426223755,,,131.0,430.0,1313.0,-21.0,-2.0,8.0
40.79044198989868,,,608.0,703.0,1270.0,-20.0,-1.0,22.0
40.81089377403259,,,917.0,782.0,1067.0,-22.0,-3.0,33.0
40.83566331863403,,,858.0,497.0,374.0,-27.0,-3.0,37.0
40.85609149932861,,,618.0,166.0,274.0,-27.0,-2.0,28.0
40.87660336494446,,,118.0,-60.0,731.0,-15.0,-3.0,2.0
40.89702916145325,,,142.0,-10.0,1153.0,-7.0,-5.0,-5.0
40.91763997077942,,,287.0,-11.0,1495.0,-1.0,-8.0,-5.0
40.93805742263794,,,553.0,-395.0,1836.0,-1.0,-13.0,5.0
40.95853900909424,,,678.0,-710.0,1942.0,-5.0,-15.0,10.0
40.97907114028931,,,859.0,-951.0,2059.0,-6.0,-14.0,12.0
40.999610900878906,,,1415.0,-1224.0,2054.0,0.0,-7.0,8.0
41.02001762390137,,,1811.0,-1365.0,1925.0,3.0,-4.0,7.0
41.0405707359314,,,2242.0,-1450.0,1694.0,5.0,-1.0,7.0
41.06107544898987,,,3081.0,-1347.0,1199.0,6.0,9.0,5.0
41.08141016960144,,,3444.0,-1175.0,1079.0,7.0,15.0,3.0
41.10193228721619,,,3680.0,-941.0,1088.0,6.0,20.0,2.0
41.12247014045715,,,3753.0,-457.0,1554.0,1.0,30.0,1.0
41.14296317100525,,,3672.0,-307.0,1910.0,-4.0,30.0,4.0
41.163400173187256,,,3415.0,-62.0,2247.0,-13.0,18.0,16.0
41.18390941619873,,,3307.0,26.0,2170.0,-14.0,11.0,22.0
41.20440888404846,,,3187.0,58.0,1958.0,-13.0,6.0,28.0
41.224966526031494,,,2510.0,-17.0,1295.0,-7.0,-3.0,31.0
41.24544286727905,,,1978.0,-62.0,1071.0,-5.0,-3.0,27.0
41.26584434509277,,,1414.0,-71.0,1084.0,-1.0,-4.0,21.0
41.286456823349,,,525.0,-171.0,1573.0,5.0,-12.0,15.0
41.30712342262268,,,223.0,-261.0,1688.0,5.0,-19.0,15.0
41.32776689529419,,,3.0,-290.0,1595.0,4.0,-22.0,12.0
41.34832763671875,,,-37.0,-285.0,1482.0,1.0,-24.0,1.0
41.36869812011719,,,37.0,-172.0,1491.0,1.0,-23.0,-4.0
41.385127782821655,,,314.0,127.0,1488.0,0.0,-17.0,-8.0
41.405561685562134,,,491.0,245.0,1416.0,-1.0,-15.0,-6.0
41.425989866256714,,,612.0,366.0,1302.0,-2.0,-13.0,-4.0
41.4466450214386,,,707.0,503.0,1298.0,-1.0,-10.0,1.0
41.46716904640198,,,650.0,475.0,1361.0,0.0,-9.0,4.0
41.487613677978516,,,532.0,399.0,1380.0,1.0,-7.0,5.0
41.507917404174805,,,243.0,189.0,1441.0,0.0,-4.0,2.0
41.52852010726929,,,106.0,44.0,1503.0,0.0,-4.0,-1.0
41.54900503158569,,,9.0,-56.0,1507.0,1.0,-4.0,-5.0
41.5695378780365,,,41.0,20.0,1596.0,1.0,-1.0,-13.0
41.58985900878906,,,169.0,143.0,1683.0,-1.0,1.0,-13.0
41.61027669906616,,,318.0,272.0,1721.0,-3.0,2.0,-10.0
41.6308376789093,,,492.0,487.0,1754.0,-7.0,1.0,-3.0
41.651158809661865,,,519.0,552.0,1831.0,-8.0,1.0,0.0
41.671634674072266,,,570.0,618.0,1929.0,-11.0,0.0,4.0
41.69218850135803,,,584.0,645.0,1873.0,-13.0,-1.0,6.0
41.72495079040527,,,794.0,-80.0,1210.0,11.0,17.0,6.0
41.74563670158386,,,743.0,-102.0,1203.0,11.0,14.0,5.0
41.766103744506836,,,715.0,-134.0,1206.0,11.0,12.0,3.0
41.786752223968506,,,679.0,-159.0,1225.0,10.0,10.0,2.0
41.80713391304016,,,617.0,-234.0,1373.0,9.0,8.0,-2.0
41.827672481536865,,,630.0,-243.0,1456.0,8.0,7.0,-4.0
41.84802532196045,,,648.0,-221.0,1556.0,6.0,7.0,-5.0
41.86863994598389,,,701.0,-170.0,1780.0,2.0,6.0,-4.0
41.889233350753784,,,711.0,-113.0,1857.0,0.0,6.0,-4.0
41.90952754020691,,,710.0,-54.0,1932.0,-1.0,6.0,-3.0
41.92985939979553,,,708.0,-10.0,2038.0,-4.0,4.0,-2.0
41.95028519630432,,,754.0,14.0,1984.0,-6.0,3.0,-2.0
41.97056460380554,,,826.0,86.0,1885.0,-8.0,3.0,-2.0
41.99118900299072,,,897.0,303.0,1645.0,-9.0,2.0,-4.0
42.01164412498474,,,967.0,417.0,1572.0,-10.0,2.0,-5.0
42.03219485282898,,,1078.0,718.0,1611.0,-10.0,1.0,-3.0
42.052571535110474,,,1095.0,900.0,1696.0,-11.0,1.0,0.0
42.07319140434265,,,1107.0,1033.0,1806.0,-12.0,2.0,4.0
42.09360313415527,,,1144.0,1102.0,1723.0,-12.0,0.0,13.0
42.114084243774414,,,1104.0,993.0,1543.0,-11.0,-1.0,14.0
42.13456988334656,,,1003.0,813.0,1400.0,-8.0,-1.0,13.0
42.155067443847656,,,777.0,415.0,1277.0,-2.0,1.0,4.0
42.17562174797058,,,730.0,260.0,1314.0,0.0,2.0,0.0
42.19609713554382,,,716.0,178.0,1402.0,0.0,3.0,-3.0
42.216620445251465,,,828.0,188.0,1611.0,0.0,6.0,-6.0
42.23711180686951,,,919.0,236.0,1657.0,1.0,7.0,-5.0
42.25759029388428,,,911.0,297.0,1613.0,2.0,9.0,-3.0
42.27804160118103,,,847.0,265.0,1637.0,2.0,9.0,-4.0
42.29844069480896,,,786.0,215.0,1680.0,2.0,7.0,-5.0
42.31906008720398,,,717.0,134.0,1633.0,0.0,3.0,-7.0
42.33942246437073,,,714.0,178.0,1564.0,-1.0,2.0,-9.0
42.36005616188049,,,761.0,249.0,1535.0,-2.0,1.0,-9.0
42.38045525550842,,,870.0,343.0,1532.0,-4.0,1.0,-8.0
42.40084767341614,,,897.0,364.0,1529.0,-4.0,2.0,-7.0
42.42141938209534,,,911.0,372.0,1497.0,-4.0,2.0,-7.0
42.44200801849365,,,948.0,402.0,1270.0,-3.0,2.0,-7.0
42.46245360374451,,,970.0,427.0,1164.0,-2.0,3.0,-8.0
42.48292875289917,,,975.0,417.0,1074.0,0.0,4.0,-7.0
42.50340461730957,,,836.0,318.0,868.0,7.0,9.0,-12.0
42.52393674850464,,,770.0,345.0,807.0,12.0,12.0,-17.0
42.544347047805786,,,819.0,338.0,772.0,23.0,15.0,-24.0
42.56493878364563,,,858.0,261.0,761.0,27.0,17.0,-24.0
42.58534049987793,,,812.0,252.0,713.0,30.0,22.0,-23.0
42.60591530799866,,,611.0,330.0,717.0,46.0,33.0,-31.0
42.62623977661133,,,601.0,495.0,750.0,63.0,38.0,-34.0
42.64688467979431,,,737.0,739.0,913.0,82.0,39.0,-35.0
42.66733956336975,,,972.0,1433.0,897.0,119.0,39.0,-42.0
42.68785238265991,,,1165.0,1648.0,755.0,131.0,40.0,-43.0
42.70832800865173,,,1361.0,1842.0,733.0,138.0,38.0,-42.0
42.72874140739441,,,1742.0,2125.0,819.0,148.0,37.0,-37.0
42.749269247055054,,,1717.0,2131.0,767.0,150.0,34.0,-34.0
42.769832611083984,,,1110.0,1518.0,216.0,151.0,34.0,-44.0
42.78616166114807,,,851.0,1101.0,-37.0,148.0,34.0,-53.0
42.80662488937378,,,608.0,699.0,-214.0,146.0,33.0,-63.0
42.82719659805298,,,264.0,113.0,-222.0,138.0,36.0,-80.0
42.84776306152344,,,208.0,-157.0,-12.0,132.0,38.0,-85.0
